imu,time,ax,ay,az,gx,gy,gz,mx,my,mz
1,295499,-3478,-1685,-598,-135,-218,-93,374,124,-214
1,295507,-3478,-1685,-598,-135,-218,-93,374,124,-214
1,295516,-3477,-1684,-600,-145,-218,-94,374,124,-214
1,295524,-3477,-1684,-600,-145,-218,-94,374,124,-214
1,295532,-3477,-1684,-600,-145,-218,-94,374,124,-214
1,295539,-3477,-1684,-602,-137,-226,-101,374,124,-214
1,295547,-3477,-1684,-602,-137,-226,-101,374,124,-214
1,295555,-3478,-1685,-604,-135,-226,-97,374,124,-214
1,295561,-3478,-1685,-604,-135,-226,-97,374,124,-214
1,295568,-3478,-1685,-604,-135,-226,-97,374,124,-214
1,295575,-3477,-1686,-604,-134,-227,-99,374,124,-214
1,295581,-3477,-1686,-604,-134,-227,-99,374,124,-214
1,295587,-3477,-1686,-604,-134,-227,-99,374,124,-214
1,295595,-3477,-1687,-602,-138,-235,-103,374,124,-214
1,295601,-3477,-1687,-602,-138,-235,-103,374,124,-214
1,295606,-3477,-1687,-602,-138,-235,-103,374,124,-214
1,295613,-3477,-1687,-602,-138,-235,-103,374,124,-214
1,295618,-3478,-1684,-602,-136,-230,-87,365,127,-209
1,295624,-3478,-1684,-602,-136,-230,-87,365,127,-209
1,295630,-3478,-1684,-602,-136,-230,-87,365,127,-209
1,295636,-3478,-1685,-601,-126,-228,-95,365,127,-209
1,295642,-3478,-1685,-601,-126,-228,-95,365,127,-209
1,295648,-3478,-1685,-601,-126,-228,-95,365,127,-209
1,295653,-3478,-1685,-601,-126,-228,-95,365,127,-209
1,295659,-3476,-1684,-604,-131,-223,-94,365,127,-209
1,295664,-3476,-1684,-604,-131,-223,-94,365,127,-209
1,295670,-3476,-1684,-604,-131,-223,-94,365,127,-209
1,295675,-3478,-1684,-605,-135,-221,-94,365,127,-209
1,295682,-3478,-1684,-605,-135,-221,-94,365,127,-209
1,295687,-3478,-1684,-605,-135,-221,-94,365,127,-209
1,295693,-3478,-1684,-605,-135,-221,-94,365,127,-209
1,295698,-3473,-1683,-602,-132,-221,-96,365,127,-209
1,295704,-3473,-1683,-602,-132,-221,-96,365,127,-209
1,295709,-3473,-1683,-602,-132,-221,-96,365,127,-209
1,295714,-3479,-1686,-604,-135,-233,-95,365,127,-209
1,295719,-3479,-1686,-604,-135,-233,-95,365,127,-209
1,295726,-3479,-1686,-604,-135,-233,-95,365,127,-209
1,295731,-3479,-1686,-604,-135,-233,-95,365,127,-209
1,295737,-3479,-1683,-600,-134,-227,-97,364,126,-204
1,295742,-3479,-1683,-600,-134,-227,-97,364,126,-204
1,295747,-3479,-1683,-600,-134,-227,-97,364,126,-204
1,295752,-3479,-1683,-600,-134,-227,-97,364,126,-204
1,295758,-3477,-1687,-599,-135,-224,-93,364,126,-204
1,295763,-3477,-1687,-599,-135,-224,-93,364,126,-204
1,295770,-3477,-1687,-599,-135,-224,-93,364,126,-204
1,295775,-3476,-1684,-603,-134,-226,-99,364,126,-204
1,295780,-3476,-1684,-603,-134,-226,-99,364,126,-204
1,295786,-3476,-1684,-603,-134,-226,-99,364,126,-204
1,295791,-3476,-1684,-603,-134,-226,-99,364,126,-204
1,295797,-3476,-1688,-606,-138,-232,-100,364,126,-204
1,295803,-3476,-1688,-606,-138,-232,-100,364,126,-204
1,295809,-3476,-1688,-606,-138,-232,-100,364,126,-204
1,295815,-3476,-1686,-602,-135,-225,-99,364,126,-204
1,295820,-3476,-1686,-602,-135,-225,-99,364,126,-204
1,295825,-3476,-1686,-602,-135,-225,-99,364,126,-204
1,295830,-3476,-1686,-602,-135,-225,-99,364,126,-204
1,295835,-3476,-1684,-599,-140,-225,-99,364,126,-204
1,295841,-3476,-1684,-599,-140,-225,-99,364,126,-204
1,295846,-3476,-1684,-599,-140,-225,-99,364,126,-204
1,295853,-3476,-1684,-599,-140,-225,-99,364,126,-204
1,295858,-3477,-1685,-603,-136,-227,-91,364,126,-214
1,295863,-3477,-1685,-603,-136,-227,-91,364,126,-214
1,295869,-3477,-1685,-603,-136,-227,-91,364,126,-214
1,295874,-3478,-1684,-606,-140,-236,-95,364,126,-214
1,295880,-3478,-1684,-606,-140,-236,-95,364,126,-214
1,295885,-3478,-1684,-606,-140,-236,-95,364,126,-214
1,295891,-3478,-1684,-606,-140,-236,-95,364,126,-214
1,295897,-3476,-1684,-605,-129,-230,-102,364,126,-214
1,295902,-3476,-1684,-605,-129,-230,-102,364,126,-214
1,295908,-3476,-1684,-605,-129,-230,-102,364,126,-214
1,295914,-3476,-1684,-605,-129,-230,-102,364,126,-214
1,295919,-3478,-1686,-605,-131,-224,-98,364,126,-214
1,295924,-3478,-1686,-605,-131,-224,-98,364,126,-214
1,295930,-3478,-1686,-605,-131,-224,-98,364,126,-214
1,295936,-3479,-1684,-601,-133,-228,-99,364,126,-214
1,295941,-3479,-1684,-601,-133,-228,-99,364,126,-214
1,295946,-3479,-1684,-601,-133,-228,-99,364,126,-214
1,295952,-3479,-1684,-601,-133,-228,-99,364,126,-214
1,295957,-3475,-1683,-603,-136,-225,-100,364,126,-214
1,295963,-3475,-1683,-603,-136,-225,-100,364,126,-214
1,295968,-3475,-1683,-603,-136,-225,-100,364,126,-214
1,295974,-3475,-1683,-603,-136,-225,-100,364,126,-214
1,295980,-3473,-1686,-601,-142,-224,-83,367,121,-199
1,295985,-3473,-1686,-601,-142,-224,-83,367,121,-199
1,295990,-3473,-1686,-601,-142,-224,-83,367,121,-199
1,295996,-3476,-1683,-607,-136,-226,-95,367,121,-199
1,296001,-3476,-1683,-607,-136,-226,-95,367,121,-199
1,296007,-3476,-1683,-607,-136,-226,-95,367,121,-199
1,296012,-3476,-1683,-607,-136,-226,-95,367,121,-199
1,296017,-3474,-1683,-600,-138,-228,-97,367,121,-199
1,296024,-3474,-1683,-600,-138,-228,-97,367,121,-199
1,296030,-3474,-1683,-600,-138,-228,-97,367,121,-199
1,296035,-3479,-1685,-602,-135,-227,-95,367,121,-199
1,296040,-3479,-1685,-602,-135,-227,-95,367,121,-199
1,296046,-3479,-1685,-602,-135,-227,-95,367,121,-199
1,296052,-3479,-1685,-602,-135,-227,-95,367,121,-199
1,296057,-3478,-1684,-602,-138,-230,-93,367,121,-199
1,296064,-3478,-1684,-602,-138,-230,-93,367,121,-199
1,296069,-3478,-1684,-602,-138,-230,-93,367,121,-199
1,296075,-3478,-1684,-602,-138,-230,-93,367,121,-199
1,296080,-3475,-1686,-604,-139,-237,-98,367,121,-199
1,296085,-3475,-1686,-604,-139,-237,-98,367,121,-199
1,296090,-3475,-1686,-604,-139,-237,-98,367,121,-199
1,296096,-3480,-1687,-607,-139,-230,-101,367,121,-199
1,296101,-3480,-1687,-607,-139,-230,-101,367,121,-199
1,296108,-3480,-1687,-607,-139,-230,-101,367,121,-199
1,296113,-3480,-1687,-607,-139,-230,-101,367,121,-199
1,296118,-3474,-1685,-600,-125,-223,-89,370,128,-202
1,296124,-3474,-1685,-600,-125,-223,-89,370,128,-202
1,296130,-3474,-1685,-600,-125,-223,-89,370,128,-202
1,296136,-3476,-1685,-601,-126,-231,-94,370,128,-202
1,296141,-3476,-1685,-601,-126,-231,-94,370,128,-202
1,296147,-3476,-1685,-601,-126,-231,-94,370,128,-202
1,296154,-3476,-1685,-601,-126,-231,-94,370,128,-202
1,296158,-3476,-1687,-606,-134,-231,-98,370,128,-202
1,296164,-3476,-1687,-606,-134,-231,-98,370,128,-202
1,296169,-3476,-1687,-606,-134,-231,-98,370,128,-202
1,296175,-3478,-1687,-604,-139,-230,-96,370,128,-202
1,296179,-3478,-1687,-604,-139,-230,-96,370,128,-202
1,296185,-3478,-1687,-604,-139,-230,-96,370,128,-202
1,296192,-3478,-1687,-604,-139,-230,-96,370,128,-202
1,296198,-3479,-1687,-603,-137,-229,-101,370,128,-202
1,296203,-3479,-1687,-603,-137,-229,-101,370,128,-202
1,296208,-3479,-1687,-603,-137,-229,-101,370,128,-202
1,296214,-3479,-1687,-603,-137,-229,-101,370,128,-202
1,296219,-3477,-1687,-606,-136,-229,-103,370,128,-202
1,296224,-3477,-1687,-606,-136,-229,-103,370,128,-202
1,296230,-3477,-1687,-606,-136,-229,-103,370,128,-202
1,296236,-3478,-1684,-601,-131,-229,-97,371,123,-199
1,296241,-3478,-1684,-601,-131,-229,-97,371,123,-199
1,296247,-3478,-1684,-601,-131,-229,-97,371,123,-199
1,296252,-3478,-1684,-601,-131,-229,-97,371,123,-199
1,296257,-3477,-1685,-603,-133,-235,-98,371,123,-199
1,296263,-3477,-1685,-603,-133,-235,-98,371,123,-199
1,296268,-3477,-1685,-603,-133,-235,-98,371,123,-199
1,296274,-3477,-1685,-603,-133,-235,-98,371,123,-199
1,296280,-3477,-1686,-602,-132,-230,-97,371,123,-199
1,296286,-3477,-1686,-602,-132,-230,-97,371,123,-199
1,296291,-3477,-1686,-602,-132,-230,-97,371,123,-199
1,296296,-3477,-1685,-604,-126,-228,-103,371,123,-199
1,296302,-3477,-1685,-604,-126,-228,-103,371,123,-199
1,296307,-3477,-1685,-604,-126,-228,-103,371,123,-199
1,296313,-3477,-1685,-604,-126,-228,-103,371,123,-199
1,296318,-3475,-1684,-605,-138,-227,-97,371,123,-199
1,296325,-3475,-1684,-605,-138,-227,-97,371,123,-199
1,296330,-3475,-1684,-605,-138,-227,-97,371,123,-199
1,296335,-3476,-1684,-610,-134,-232,-91,371,123,-199
1,296341,-3476,-1684,-610,-134,-232,-91,371,123,-199
1,296346,-3476,-1684,-610,-134,-232,-91,371,123,-199
1,296351,-3476,-1684,-610,-134,-232,-91,371,123,-199
1,296357,-3477,-1684,-601,-145,-227,-96,364,126,-206
1,296363,-3477,-1684,-601,-145,-227,-96,364,126,-206
1,296369,-3477,-1684,-601,-145,-227,-96,364,126,-206
1,296374,-3477,-1684,-601,-145,-227,-96,364,126,-206
1,296379,-3475,-1686,-601,-137,-231,-94,364,126,-206
1,296385,-3475,-1686,-601,-137,-231,-94,364,126,-206
1,296390,-3475,-1686,-601,-137,-231,-94,364,126,-206
1,296395,-3475,-1683,-602,-133,-234,-98,364,126,-206
1,296400,-3475,-1683,-602,-133,-234,-98,364,126,-206
1,296407,-3475,-1683,-602,-133,-234,-98,364,126,-206
1,296413,-3475,-1683,-602,-133,-234,-98,364,126,-206
1,296417,-3474,-1682,-604,-139,-229,-95,364,126,-206
1,296423,-3474,-1682,-604,-139,-229,-95,364,126,-206
1,296429,-3474,-1682,-604,-139,-229,-95,364,126,-206
1,296436,-3476,-1687,-605,-137,-237,-92,364,126,-206
1,296443,-3476,-1687,-605,-137,-237,-92,364,126,-206
1,296450,-3476,-1687,-605,-137,-237,-92,364,126,-206
1,296454,-3476,-1687,-605,-137,-237,-92,364,126,-206
1,296459,-3476,-1685,-605,-136,-232,-94,364,126,-206
1,296465,-3476,-1685,-605,-136,-232,-94,364,126,-206
1,296470,-3476,-1685,-605,-136,-232,-94,364,126,-206
1,296475,-3477,-1684,-599,-137,-227,-92,364,126,-206
1,296480,-3477,-1684,-599,-137,-227,-92,369,131,-209
1,296486,-3477,-1684,-599,-137,-227,-92,369,131,-209
1,296492,-3477,-1684,-599,-137,-227,-92,369,131,-209
1,296498,-3477,-1686,-605,-137,-229,-97,369,131,-209
1,296503,-3477,-1686,-605,-137,-229,-97,369,131,-209
1,296509,-3477,-1686,-605,-137,-229,-97,369,131,-209
1,296514,-3477,-1686,-605,-137,-229,-97,369,131,-209
1,296519,-3474,-1683,-609,-134,-237,-95,369,131,-209
1,296524,-3474,-1683,-609,-134,-237,-95,369,131,-209
1,296530,-3474,-1683,-609,-134,-237,-95,369,131,-209
1,296536,-3477,-1686,-598,-138,-229,-91,369,131,-209
1,296542,-3477,-1686,-598,-138,-229,-91,369,131,-209
1,296547,-3477,-1686,-598,-138,-229,-91,369,131,-209
1,296553,-3477,-1686,-598,-138,-229,-91,369,131,-209
1,296558,-3476,-1685,-606,-137,-233,-97,369,131,-209
1,296564,-3476,-1685,-606,-137,-233,-97,369,131,-209
1,296569,-3476,-1685,-606,-137,-233,-97,369,131,-209
1,296576,-3475,-1686,-600,-133,-228,-98,369,131,-209
1,296581,-3475,-1686,-600,-133,-228,-98,369,131,-209
1,296587,-3475,-1686,-600,-133,-228,-98,369,131,-209
1,296592,-3475,-1686,-600,-133,-228,-98,369,131,-209
1,296597,-3477,-1684,-597,-137,-225,-98,369,131,-213
1,296602,-3477,-1684,-597,-137,-225,-98,369,131,-213
1,296608,-3477,-1684,-597,-137,-225,-98,369,131,-213
1,296613,-3477,-1684,-597,-137,-225,-98,369,131,-213
1,296619,-3478,-1682,-603,-144,-227,-94,369,131,-213
1,296625,-3478,-1682,-603,-144,-227,-94,369,131,-213
1,296630,-3478,-1682,-603,-144,-227,-94,369,131,-213
1,296635,-3478,-1682,-603,-144,-227,-94,369,131,-213
1,296641,-3476,-1685,-603,-135,-225,-91,369,131,-213
1,296645,-3476,-1685,-603,-135,-225,-91,369,131,-213
1,296651,-3476,-1685,-603,-135,-225,-91,369,131,-213
1,296656,-3475,-1686,-606,-134,-227,-97,369,131,-213
1,296662,-3475,-1686,-606,-134,-227,-97,369,131,-213
1,296667,-3475,-1686,-606,-134,-227,-97,369,131,-213
1,296672,-3475,-1686,-606,-134,-227,-97,369,131,-213
1,296678,-3475,-1682,-602,-136,-220,-99,369,131,-213
1,296683,-3475,-1682,-602,-136,-220,-99,369,131,-213
1,296688,-3475,-1682,-602,-136,-220,-99,369,131,-213
1,296693,-3475,-1682,-602,-136,-220,-99,369,131,-213
1,296699,-3477,-1686,-607,-133,-233,-102,369,131,-213
1,296706,-3477,-1686,-607,-133,-233,-102,369,131,-213
1,296711,-3477,-1686,-607,-133,-233,-102,369,131,-213
1,296716,-3475,-1686,-604,-141,-223,-103,369,131,-213
1,296721,-3475,-1686,-604,-141,-223,-103,369,131,-213
1,296726,-3475,-1686,-604,-141,-223,-103,369,131,-213
1,296732,-3475,-1686,-604,-141,-223,-103,369,131,-213
1,296737,-3474,-1682,-600,-138,-231,-100,365,129,-209
1,296743,-3474,-1682,-600,-138,-231,-100,365,129,-209
1,296749,-3474,-1682,-600,-138,-231,-100,365,129,-209
1,296755,-3474,-1682,-600,-138,-231,-100,365,129,-209
1,296760,-3478,-1682,-602,-142,-228,-95,365,129,-209
1,296766,-3478,-1682,-602,-142,-228,-95,365,129,-209
1,296771,-3478,-1682,-602,-142,-228,-95,365,129,-209
1,296777,-3478,-1686,-604,-129,-231,-98,365,129,-209
1,296781,-3478,-1686,-604,-129,-231,-98,365,129,-209
1,296787,-3478,-1686,-604,-129,-231,-98,365,129,-209
1,296793,-3478,-1686,-604,-129,-231,-98,365,129,-209
1,296799,-3478,-1683,-601,-134,-229,-95,365,129,-209
1,296804,-3478,-1683,-601,-134,-229,-95,365,129,-209
1,296810,-3478,-1683,-601,-134,-229,-95,365,129,-209
1,296814,-3478,-1683,-601,-134,-229,-95,365,129,-209
1,296820,-3480,-1687,-600,-136,-231,-97,365,129,-209
1,296825,-3480,-1687,-600,-136,-231,-97,365,129,-209
1,296830,-3480,-1687,-600,-136,-231,-97,365,129,-209
1,296836,-3477,-1684,-600,-137,-229,-95,365,129,-209
1,296841,-3477,-1684,-600,-137,-229,-95,365,129,-209
1,296847,-3477,-1684,-600,-137,-229,-95,365,129,-209
1,296852,-3477,-1684,-600,-137,-229,-95,365,129,-209
1,296857,-3476,-1684,-600,-134,-236,-93,368,124,-206
1,296862,-3476,-1684,-600,-134,-236,-93,368,124,-206
1,296867,-3476,-1684,-600,-134,-236,-93,368,124,-206
1,296873,-3476,-1684,-600,-134,-236,-93,368,124,-206
1,296879,-3475,-1680,-602,-134,-231,-94,368,124,-206
1,296885,-3475,-1680,-602,-134,-231,-94,368,124,-206
1,296890,-3475,-1680,-602,-134,-231,-94,368,124,-206
1,296896,-3479,-1685,-608,-133,-230,-98,368,124,-206
1,296901,-3479,-1685,-608,-133,-230,-98,368,124,-206
1,296906,-3479,-1685,-608,-133,-230,-98,368,124,-206
1,296911,-3479,-1685,-608,-133,-230,-98,368,124,-206
1,296916,-3477,-1688,-610,-128,-229,-95,368,124,-206
1,296923,-3477,-1688,-610,-128,-229,-95,368,124,-206
1,296929,-3477,-1688,-610,-128,-229,-95,368,124,-206
1,296934,-3477,-1688,-610,-128,-229,-95,368,124,-206
1,296940,-3475,-1686,-606,-134,-229,-96,368,124,-206
1,296946,-3475,-1686,-606,-134,-229,-96,368,124,-206
1,296953,-3475,-1686,-606,-134,-229,-96,368,124,-206
1,296960,-3478,-1686,-607,-137,-229,-96,368,124,-206
1,296965,-3478,-1686,-607,-137,-229,-96,368,124,-206
1,296970,-3478,-1686,-607,-137,-229,-96,368,124,-206
1,296976,-3476,-1685,-602,-138,-230,-94,368,124,-206
1,296981,-3476,-1685,-602,-138,-230,-94,369,123,-207
1,296986,-3476,-1685,-602,-138,-230,-94,369,123,-207
1,296991,-3476,-1685,-602,-138,-230,-94,369,123,-207
1,296996,-3478,-1686,-602,-135,-230,-95,369,123,-207
1,297003,-3478,-1686,-602,-135,-230,-95,369,123,-207
1,297008,-3478,-1686,-602,-135,-230,-95,369,123,-207
1,297014,-3478,-1686,-602,-135,-230,-95,369,123,-207
1,297019,-3476,-1684,-607,-133,-225,-94,369,123,-207
1,297024,-3476,-1684,-607,-133,-225,-94,369,123,-207
1,297029,-3476,-1684,-607,-133,-225,-94,369,123,-207
1,297035,-3476,-1684,-607,-133,-225,-94,369,123,-207
1,297040,-3477,-1685,-605,-138,-224,-103,369,123,-207
1,297047,-3477,-1685,-605,-138,-224,-103,369,123,-207
1,297052,-3477,-1685,-605,-138,-224,-103,369,123,-207
1,297058,-3478,-1684,-606,-144,-233,-96,369,123,-207
1,297063,-3478,-1684,-606,-144,-233,-96,369,123,-207
1,297069,-3478,-1684,-606,-144,-233,-96,369,123,-207
1,297074,-3478,-1684,-606,-144,-233,-96,369,123,-207
1,297080,-3477,-1687,-608,-143,-232,-92,369,123,-207
1,297085,-3477,-1687,-608,-143,-232,-92,369,123,-207
1,297091,-3477,-1687,-608,-143,-232,-92,369,123,-207
1,297097,-3478,-1688,-601,-141,-228,-93,367,129,-205
1,297102,-3478,-1688,-601,-141,-228,-93,367,129,-205
1,297108,-3478,-1688,-601,-141,-228,-93,367,129,-205
1,297113,-3478,-1688,-601,-141,-228,-93,367,129,-205
1,297118,-3477,-1686,-601,-143,-229,-94,367,129,-205
1,297124,-3477,-1686,-601,-143,-229,-94,367,129,-205
1,297129,-3477,-1686,-601,-143,-229,-94,367,129,-205
1,297135,-3477,-1686,-601,-143,-229,-94,367,129,-205
1,297141,-3476,-1683,-606,-141,-229,-95,367,129,-205
1,297146,-3476,-1683,-606,-141,-229,-95,367,129,-205
1,297151,-3476,-1683,-606,-141,-229,-95,367,129,-205
1,297156,-3475,-1683,-608,-139,-233,-91,367,129,-205
1,297162,-3475,-1683,-608,-139,-233,-91,367,129,-205
1,297167,-3475,-1683,-608,-139,-233,-91,367,129,-205
1,297172,-3475,-1683,-608,-139,-233,-91,367,129,-205
1,297179,-3478,-1685,-601,-137,-228,-89,367,129,-205
1,297185,-3478,-1685,-601,-137,-228,-89,367,129,-205
1,297190,-3478,-1685,-601,-137,-228,-89,367,129,-205
1,297196,-3477,-1684,-609,-137,-226,-98,367,129,-205
1,297201,-3477,-1684,-609,-137,-226,-98,367,129,-205
1,297207,-3477,-1684,-609,-137,-226,-98,367,129,-205
1,297212,-3477,-1684,-609,-137,-226,-98,367,129,-205
1,297218,-3475,-1684,-604,-132,-229,-99,363,123,-201
1,297224,-3475,-1684,-604,-132,-229,-99,363,123,-201
1,297229,-3475,-1684,-604,-132,-229,-99,363,123,-201
1,297234,-3475,-1684,-604,-132,-229,-99,363,123,-201
1,297240,-3477,-1685,-601,-132,-222,-95,363,123,-201
1,297245,-3477,-1685,-601,-132,-222,-95,363,123,-201
1,297250,-3477,-1685,-601,-132,-222,-95,363,123,-201
1,297255,-3478,-1681,-602,-134,-230,-95,363,123,-201
1,297261,-3478,-1681,-602,-134,-230,-95,363,123,-201
1,297267,-3478,-1681,-602,-134,-230,-95,363,123,-201
1,297272,-3478,-1681,-602,-134,-230,-95,363,123,-201
1,297278,-3478,-1685,-601,-139,-226,-93,363,123,-201
1,297283,-3478,-1685,-601,-139,-226,-93,363,123,-201
1,297288,-3478,-1685,-601,-139,-226,-93,363,123,-201
1,297294,-3478,-1685,-601,-139,-226,-93,363,123,-201
1,297299,-3477,-1682,-604,-137,-220,-87,363,123,-201
1,297306,-3477,-1682,-604,-137,-220,-87,363,123,-201
1,297311,-3477,-1682,-604,-137,-220,-87,363,123,-201
1,297316,-3474,-1685,-604,-136,-225,-98,363,123,-201
1,297322,-3474,-1685,-604,-136,-225,-98,363,123,-201
1,297327,-3474,-1685,-604,-136,-225,-98,363,123,-201
1,297333,-3474,-1685,-604,-136,-225,-98,363,123,-201
1,297338,-3476,-1684,-601,-132,-224,-95,363,127,-199
1,297345,-3476,-1684,-601,-132,-224,-95,363,127,-199
1,297350,-3476,-1684,-601,-132,-224,-95,363,127,-199
1,297355,-3476,-1684,-601,-132,-224,-95,363,127,-199
1,297360,-3475,-1687,-602,-133,-223,-100,363,127,-199
1,297366,-3475,-1687,-602,-133,-223,-100,363,127,-199
1,297371,-3475,-1687,-602,-133,-223,-100,363,127,-199
1,297376,-3476,-1685,-600,-136,-230,-94,363,127,-199
1,297381,-3476,-1685,-600,-136,-230,-94,363,127,-199
1,297387,-3476,-1685,-600,-136,-230,-94,363,127,-199
1,297393,-3476,-1685,-600,-136,-230,-94,363,127,-199
1,297398,-3478,-1682,-611,-137,-231,-96,363,127,-199
1,297404,-3478,-1682,-611,-137,-231,-96,363,127,-199
1,297409,-3478,-1682,-611,-137,-231,-96,363,127,-199
1,297414,-3478,-1682,-611,-137,-231,-96,363,127,-199
1,297419,-3479,-1686,-601,-138,-228,-94,363,127,-199
1,297425,-3479,-1686,-601,-138,-228,-94,363,127,-199
1,297432,-3479,-1686,-601,-138,-228,-94,363,127,-199
1,297437,-3476,-1685,-603,-142,-231,-91,363,127,-199
1,297442,-3476,-1685,-603,-142,-231,-91,363,127,-199
1,297447,-3476,-1685,-603,-142,-231,-91,363,127,-199
1,297452,-3476,-1685,-603,-142,-231,-91,363,127,-199
1,297457,-3475,-1687,-599,-136,-229,-102,363,127,-199
1,297463,-3475,-1687,-599,-136,-229,-102,363,127,-199
1,297468,-3475,-1687,-599,-136,-229,-102,363,127,-199
1,297475,-3475,-1687,-599,-136,-229,-102,363,127,-199
1,297480,-3478,-1685,-601,-135,-227,-105,364,128,-212
1,297485,-3478,-1685,-601,-135,-227,-105,364,128,-212
1,297491,-3478,-1685,-601,-135,-227,-105,364,128,-212
1,297496,-3476,-1686,-601,-135,-232,-94,364,128,-212
1,297502,-3476,-1686,-601,-135,-232,-94,364,128,-212
1,297507,-3476,-1686,-601,-135,-232,-94,364,128,-212
1,297512,-3476,-1686,-601,-135,-232,-94,364,128,-212
1,297519,-3477,-1687,-608,-132,-235,-100,364,128,-212
1,297524,-3477,-1687,-608,-132,-235,-100,364,128,-212
1,297530,-3477,-1687,-608,-132,-235,-100,364,128,-212
1,297535,-3477,-1687,-608,-132,-235,-100,364,128,-212
1,297540,-3476,-1685,-603,-138,-233,-97,364,128,-212
1,297545,-3476,-1685,-603,-138,-233,-97,364,128,-212
1,297551,-3476,-1685,-603,-138,-233,-97,364,128,-212
1,297556,-3472,-1687,-605,-134,-228,-85,364,128,-212
1,297562,-3472,-1687,-605,-134,-228,-85,364,128,-212
1,297567,-3472,-1687,-605,-134,-228,-85,364,128,-212
1,297573,-3472,-1687,-605,-134,-228,-85,364,128,-212
1,297578,-3477,-1683,-603,-131,-225,-94,364,128,-212
1,297583,-3477,-1683,-603,-131,-225,-94,364,128,-212
1,297589,-3477,-1683,-603,-131,-225,-94,364,128,-212
1,297594,-3477,-1683,-603,-131,-225,-94,364,128,-212
1,297601,-3476,-1685,-601,-130,-222,-96,368,120,-208
1,297606,-3476,-1685,-601,-130,-222,-96,368,120,-208
1,297611,-3476,-1685,-601,-130,-222,-96,368,120,-208
1,297617,-3475,-1684,-601,-132,-221,-98,368,120,-208
1,297622,-3475,-1684,-601,-132,-221,-98,368,120,-208
1,297628,-3475,-1684,-601,-132,-221,-98,368,120,-208
1,297634,-3475,-1684,-601,-132,-221,-98,368,120,-208
1,297639,-3477,-1687,-601,-135,-227,-89,368,120,-208
1,297646,-3477,-1687,-601,-135,-227,-89,368,120,-208
1,297651,-3477,-1687,-601,-135,-227,-89,368,120,-208
1,297657,-3477,-1685,-600,-134,-220,-94,368,120,-208
1,297662,-3477,-1685,-600,-134,-220,-94,368,120,-208
1,297668,-3477,-1685,-600,-134,-220,-94,368,120,-208
1,297674,-3477,-1685,-600,-134,-220,-94,368,120,-208
1,297679,-3476,-1686,-605,-141,-223,-96,368,120,-208
1,297684,-3476,-1686,-605,-141,-223,-96,368,120,-208
1,297690,-3476,-1686,-605,-141,-223,-96,368,120,-208
1,297695,-3476,-1686,-605,-141,-223,-96,368,120,-208
1,297700,-3476,-1686,-605,-144,-225,-89,368,120,-208
1,297705,-3476,-1686,-605,-144,-225,-89,368,120,-208
1,297710,-3476,-1686,-605,-144,-225,-89,368,120,-208
1,297715,-3476,-1686,-605,-144,-225,-89,368,120,-208
1,297721,-3475,-1686,-600,-139,-222,-88,377,123,-199
1,297726,-3475,-1686,-600,-139,-222,-88,377,123,-199
1,297732,-3475,-1686,-600,-139,-222,-88,377,123,-199
1,297738,-3477,-1683,-607,-139,-226,-100,377,123,-199
1,297743,-3477,-1683,-607,-139,-226,-100,377,123,-199
1,297748,-3477,-1683,-607,-139,-226,-100,377,123,-199
1,297754,-3477,-1683,-607,-139,-226,-100,377,123,-199
1,297759,-3476,-1688,-606,-136,-224,-96,377,123,-199
1,297764,-3476,-1688,-606,-136,-224,-96,377,123,-199
1,297769,-3476,-1688,-606,-136,-224,-96,377,123,-199
1,297776,-3476,-1688,-606,-136,-224,-96,377,123,-199
1,297781,-3478,-1686,-607,-132,-223,-94,377,123,-199
1,297787,-3478,-1686,-607,-132,-223,-94,377,123,-199
1,297792,-3478,-1686,-607,-132,-223,-94,377,123,-199
1,297797,-3476,-1686,-607,-132,-224,-100,377,123,-199
1,297803,-3476,-1686,-607,-132,-224,-100,377,123,-199
1,297808,-3476,-1686,-607,-132,-224,-100,377,123,-199
1,297814,-3476,-1686,-607,-132,-224,-100,377,123,-199
1,297820,-3478,-1688,-602,-136,-222,-92,377,123,-199
1,297825,-3478,-1688,-602,-136,-222,-92,377,123,-199
1,297831,-3478,-1688,-602,-136,-222,-92,377,123,-199
1,297836,-3478,-1686,-603,-139,-221,-97,377,123,-199
1,297841,-3478,-1686,-603,-139,-221,-97,364,126,-198
1,297847,-3478,-1686,-603,-139,-221,-97,364,126,-198
1,297852,-3478,-1686,-603,-139,-221,-97,364,126,-198
1,297859,-3477,-1688,-604,-143,-224,-93,364,126,-198
1,297864,-3477,-1688,-604,-143,-224,-93,364,126,-198
1,297870,-3477,-1688,-604,-143,-224,-93,364,126,-198
1,297875,-3477,-1688,-604,-143,-224,-93,364,126,-198
1,297881,-3476,-1685,-604,-144,-228,-94,364,126,-198
1,297886,-3476,-1685,-604,-144,-228,-94,364,126,-198
1,297891,-3476,-1685,-604,-144,-228,-94,364,126,-198
1,297897,-3477,-1687,-603,-141,-230,-97,364,126,-198
1,297903,-3477,-1687,-603,-141,-230,-97,364,126,-198
1,297909,-3477,-1687,-603,-141,-230,-97,364,126,-198
1,297914,-3477,-1687,-603,-141,-230,-97,364,126,-198
1,297919,-3480,-1684,-602,-133,-228,-97,364,126,-198
1,297925,-3480,-1684,-602,-133,-228,-97,364,126,-198
1,297930,-3480,-1684,-602,-133,-228,-97,364,126,-198
1,297935,-3480,-1684,-602,-133,-228,-97,364,126,-198
1,297940,-3477,-1688,-607,-135,-230,-96,364,126,-198
1,297946,-3477,-1688,-607,-135,-230,-96,364,126,-198
1,297951,-3477,-1688,-607,-135,-230,-96,364,126,-198
1,297957,-3476,-1687,-601,-135,-231,-92,366,128,-208
1,297962,-3476,-1687,-601,-135,-231,-92,366,128,-208
1,297967,-3476,-1687,-601,-135,-231,-92,366,128,-208
1,297973,-3476,-1687,-601,-135,-231,-92,366,128,-208
1,297978,-3479,-1684,-605,-144,-225,-95,366,128,-208
1,297985,-3479,-1684,-605,-144,-225,-95,366,128,-208
1,297990,-3479,-1684,-605,-144,-225,-95,366,128,-208
1,297995,-3479,-1684,-605,-144,-225,-95,366,128,-208
1,298001,-3479,-1687,-605,-143,-225,-101,366,128,-208
1,298006,-3479,-1687,-605,-143,-225,-101,366,128,-208
1,298012,-3479,-1687,-605,-143,-225,-101,366,128,-208
1,298017,-3476,-1685,-603,-139,-226,-99,366,128,-208
1,298022,-3476,-1685,-603,-139,-226,-99,366,128,-208
1,298029,-3476,-1685,-603,-139,-226,-99,366,128,-208
1,298034,-3476,-1685,-603,-139,-226,-99,366,128,-208
1,298039,-3476,-1685,-603,-136,-225,-95,366,128,-208
1,298044,-3476,-1685,-603,-136,-225,-95,366,128,-208
1,298050,-3476,-1685,-603,-136,-225,-95,366,128,-208
1,298055,-3476,-1685,-603,-136,-225,-95,366,128,-208
1,298061,-3475,-1684,-602,-136,-224,-97,366,128,-208
1,298066,-3475,-1684,-602,-136,-224,-97,366,128,-208
1,298072,-3475,-1684,-602,-136,-224,-97,366,128,-208
1,298078,-3478,-1686,-602,-141,-220,-93,365,123,-209
1,298083,-3478,-1686,-602,-141,-220,-93,365,123,-209
1,298088,-3478,-1686,-602,-141,-220,-93,365,123,-209
1,298093,-3478,-1686,-602,-141,-220,-93,365,123,-209
1,298098,-3477,-1682,-604,-140,-228,-98,365,123,-209
1,298103,-3477,-1682,-604,-140,-228,-98,365,123,-209
1,298109,-3477,-1682,-604,-140,-228,-98,365,123,-209
1,298115,-3477,-1682,-604,-140,-228,-98,365,123,-209
1,298120,-3479,-1687,-602,-138,-231,-93,365,123,-209
1,298126,-3479,-1687,-602,-138,-231,-93,365,123,-209
1,298131,-3479,-1687,-602,-138,-231,-93,365,123,-209
1,298136,-3479,-1687,-602,-138,-231,-93,365,123,-209
1,298142,-3479,-1686,-607,-139,-225,-92,365,123,-209
1,298147,-3479,-1686,-607,-139,-225,-92,365,123,-209
1,298153,-3479,-1686,-607,-139,-225,-92,365,123,-209
1,298159,-3476,-1688,-605,-140,-225,-94,365,123,-209
1,298165,-3476,-1688,-605,-140,-225,-94,365,123,-209
1,298171,-3476,-1688,-605,-140,-225,-94,365,123,-209
1,298176,-3476,-1688,-605,-140,-225,-94,365,123,-209
1,298181,-3476,-1684,-607,-135,-232,-94,365,123,-209
1,298187,-3476,-1684,-607,-135,-232,-94,365,123,-209
1,298192,-3476,-1684,-607,-135,-232,-94,365,123,-209
1,298198,-3476,-1687,-608,-137,-226,-97,365,123,-209
1,298204,-3476,-1687,-608,-137,-226,-97,365,123,-209
1,298210,-3476,-1687,-608,-137,-226,-97,365,123,-209
1,298215,-3476,-1687,-608,-137,-226,-97,365,123,-209
1,298220,-3476,-1687,-608,-136,-225,-102,361,125,-205
1,298225,-3476,-1687,-608,-136,-225,-102,361,125,-205
1,298230,-3476,-1687,-608,-136,-225,-102,361,125,-205
1,298236,-3476,-1687,-608,-136,-225,-102,361,125,-205
1,298242,-3477,-1688,-602,-137,-230,-102,361,125,-205
1,298247,-3477,-1688,-602,-137,-230,-102,361,125,-205
1,298252,-3477,-1688,-602,-137,-230,-102,361,125,-205
1,298258,-3477,-1688,-598,-139,-233,-98,361,125,-205
1,298263,-3477,-1688,-598,-139,-233,-98,361,125,-205
1,298269,-3477,-1688,-598,-139,-233,-98,361,125,-205
1,298274,-3477,-1688,-598,-139,-233,-98,361,125,-205
1,298279,-3479,-1685,-607,-138,-224,-99,361,125,-205
1,298285,-3479,-1685,-607,-138,-224,-99,361,125,-205
1,298291,-3479,-1685,-607,-138,-224,-99,361,125,-205
1,298296,-3479,-1685,-607,-138,-224,-99,361,125,-205
1,298302,-3477,-1685,-608,-139,-230,-97,361,125,-205
1,298307,-3477,-1685,-608,-139,-230,-97,361,125,-205
1,298313,-3477,-1685,-608,-139,-230,-97,361,125,-205
1,298319,-3477,-1687,-608,-133,-231,-97,361,125,-205
1,298324,-3477,-1687,-608,-133,-231,-97,361,125,-205
1,298331,-3477,-1687,-608,-133,-231,-97,361,125,-205
1,298336,-3477,-1687,-608,-133,-231,-97,361,125,-205
1,298342,-3476,-1686,-603,-127,-229,-98,373,125,-209
1,298347,-3476,-1686,-603,-127,-229,-98,373,125,-209
1,298353,-3476,-1686,-603,-127,-229,-98,373,125,-209
1,298358,-3479,-1687,-603,-136,-230,-96,373,125,-209
1,298363,-3479,-1687,-603,-136,-230,-96,373,125,-209
1,298369,-3479,-1687,-603,-136,-230,-96,373,125,-209
1,298375,-3479,-1687,-603,-136,-230,-96,373,125,-209
1,298380,-3478,-1687,-599,-135,-232,-104,373,125,-209
1,298384,-3478,-1687,-599,-135,-232,-104,373,125,-209
1,298390,-3478,-1687,-599,-135,-232,-104,373,125,-209
1,298395,-3478,-1687,-599,-135,-232,-104,373,125,-209
1,298400,-3477,-1686,-601,-136,-234,-106,373,125,-209
1,298405,-3477,-1686,-601,-136,-234,-106,373,125,-209
1,298412,-3477,-1686,-601,-136,-234,-106,373,125,-209
1,298417,-3473,-1684,-607,-134,-233,-99,373,125,-209
1,298423,-3473,-1684,-607,-134,-233,-99,373,125,-209
1,298428,-3473,-1684,-607,-134,-233,-99,373,125,-209
1,298433,-3473,-1684,-607,-134,-233,-99,373,125,-209
1,298439,-3475,-1686,-608,-131,-225,-89,373,125,-209
1,298444,-3475,-1686,-608,-131,-225,-89,373,125,-209
1,298449,-3475,-1686,-608,-131,-225,-89,373,125,-209
1,298455,-3475,-1686,-608,-131,-225,-89,373,125,-209
1,298460,-3476,-1684,-602,-133,-228,-93,371,123,-205
1,298465,-3476,-1684,-602,-133,-228,-93,371,123,-205
1,298471,-3476,-1684,-602,-133,-228,-93,371,123,-205
1,298476,-3476,-1684,-602,-133,-228,-93,371,123,-205
1,298481,-3475,-1685,-603,-137,-231,-100,371,123,-205
1,298487,-3475,-1685,-603,-137,-231,-100,371,123,-205
1,298492,-3475,-1685,-603,-137,-231,-100,371,123,-205
1,298499,-3476,-1687,-604,-139,-224,-99,371,123,-205
1,298504,-3476,-1687,-604,-139,-224,-99,371,123,-205
1,298509,-3476,-1687,-604,-139,-224,-99,371,123,-205
1,298516,-3476,-1687,-604,-139,-224,-99,371,123,-205
1,298522,-3477,-1684,-609,-136,-224,-99,371,123,-205
1,298527,-3477,-1684,-609,-136,-224,-99,371,123,-205
1,298532,-3477,-1684,-609,-136,-224,-99,371,123,-205
1,298537,-3475,-1684,-606,-137,-224,-96,371,123,-205
1,298544,-3475,-1684,-606,-137,-224,-96,371,123,-205
1,298549,-3475,-1684,-606,-137,-224,-96,371,123,-205
1,298554,-3475,-1684,-606,-137,-224,-96,371,123,-205
1,298559,-3478,-1683,-605,-132,-233,-99,371,123,-205
1,298565,-3478,-1683,-605,-132,-233,-99,371,123,-205
1,298570,-3478,-1683,-605,-132,-233,-99,371,123,-205
1,298576,-3478,-1683,-605,-132,-233,-99,371,123,-205
1,298582,-3476,-1686,-601,-132,-223,-95,373,121,-205
1,298587,-3476,-1686,-601,-132,-223,-95,373,121,-205
1,298592,-3476,-1686,-601,-132,-223,-95,373,121,-205
1,298597,-3476,-1686,-601,-132,-223,-95,373,121,-205
1,298602,-3478,-1688,-602,-130,-227,-89,373,121,-205
1,298607,-3478,-1688,-602,-130,-227,-89,373,121,-205
1,298612,-3478,-1688,-602,-130,-227,-89,373,121,-205
1,298617,-3479,-1689,-609,-135,-225,-99,373,121,-205
1,298622,-3479,-1689,-609,-135,-225,-99,373,121,-205
1,298629,-3479,-1689,-609,-135,-225,-99,373,121,-205
1,298634,-3479,-1689,-609,-135,-225,-99,373,121,-205
1,298640,-3477,-1684,-605,-138,-229,-102,373,121,-205
1,298645,-3477,-1684,-605,-138,-229,-102,373,121,-205
1,298650,-3477,-1684,-605,-138,-229,-102,373,121,-205
1,298657,-3478,-1688,-602,-139,-226,-97,373,121,-205
1,298663,-3478,-1688,-602,-139,-226,-97,373,121,-205
1,298669,-3478,-1688,-602,-139,-226,-97,373,121,-205
1,298675,-3478,-1688,-602,-139,-226,-97,373,121,-205
1,298680,-3478,-1689,-605,-128,-231,-102,373,121,-205
1,298685,-3478,-1689,-605,-128,-231,-102,373,121,-205
1,298691,-3478,-1689,-605,-128,-231,-102,373,121,-205
1,298696,-3478,-1689,-605,-128,-231,-102,373,121,-205
1,298702,-3476,-1687,-599,-137,-228,-102,363,131,-203
1,298708,-3476,-1687,-599,-137,-228,-102,363,131,-203
1,298714,-3476,-1687,-599,-137,-228,-102,363,131,-203
1,298720,-3479,-1689,-600,-139,-231,-92,363,131,-203
1,298725,-3479,-1689,-600,-139,-231,-92,363,131,-203
1,298730,-3479,-1689,-600,-139,-231,-92,363,131,-203
1,298736,-3479,-1689,-600,-139,-231,-92,363,131,-203
1,298741,-3478,-1686,-604,-138,-225,-98,363,131,-203
1,298747,-3478,-1686,-604,-138,-225,-98,363,131,-203
1,298753,-3478,-1686,-604,-138,-225,-98,363,131,-203
1,298759,-3477,-1682,-609,-133,-228,-91,363,131,-203
1,298764,-3477,-1682,-609,-133,-228,-91,363,131,-203
1,298769,-3477,-1682,-609,-133,-228,-91,363,131,-203
1,298775,-3477,-1682,-609,-133,-228,-91,363,131,-203
1,298780,-3478,-1685,-605,-134,-223,-93,363,131,-203
1,298785,-3478,-1685,-605,-134,-223,-93,363,131,-203
1,298791,-3478,-1685,-605,-134,-223,-93,363,131,-203
1,298797,-3478,-1685,-605,-134,-223,-93,363,131,-203
1,298802,-3479,-1688,-604,-134,-225,-101,363,131,-203
1,298807,-3479,-1688,-604,-134,-225,-101,363,131,-203
1,298813,-3479,-1688,-604,-134,-225,-101,363,131,-203
1,298818,-3475,-1683,-605,-133,-223,-100,357,123,-213
1,298824,-3475,-1683,-605,-133,-223,-100,357,123,-213
1,298829,-3475,-1683,-605,-133,-223,-100,357,123,-213
1,298835,-3475,-1683,-605,-133,-223,-100,357,123,-213
1,298841,-3475,-1687,-601,-139,-230,-96,357,123,-213
1,298847,-3475,-1687,-601,-139,-230,-96,357,123,-213
1,298851,-3475,-1687,-601,-139,-230,-96,357,123,-213
1,298857,-3475,-1687,-601,-139,-230,-96,357,123,-213
1,298862,-3476,-1685,-604,-143,-220,-93,357,123,-213
1,298868,-3476,-1685,-604,-143,-220,-93,357,123,-213
1,298874,-3476,-1685,-604,-143,-220,-93,357,123,-213
1,298880,-3477,-1685,-606,-140,-224,-94,357,123,-213
1,298885,-3477,-1685,-606,-140,-224,-94,357,123,-213
1,298891,-3477,-1685,-606,-140,-224,-94,357,123,-213
1,298895,-3477,-1685,-606,-140,-224,-94,357,123,-213
1,298901,-3478,-1685,-604,-143,-227,-88,357,123,-213
1,298906,-3478,-1685,-604,-143,-227,-88,357,123,-213
1,298911,-3478,-1685,-604,-143,-227,-88,357,123,-213
1,298917,-3478,-1685,-604,-143,-227,-88,357,123,-213
1,298923,-3476,-1687,-603,-141,-232,-87,357,123,-213
1,298929,-3476,-1687,-603,-141,-232,-87,357,123,-213
1,298934,-3476,-1687,-603,-141,-232,-87,357,123,-213
1,298939,-3477,-1685,-609,-133,-226,-97,357,123,-213
1,298945,-3477,-1685,-609,-133,-226,-97,357,123,-213
1,298950,-3477,-1685,-609,-133,-226,-97,357,123,-213
1,298955,-3477,-1685,-609,-133,-226,-97,357,123,-213
1,298961,-3479,-1684,-605,-137,-222,-97,360,124,-216
1,298967,-3479,-1684,-605,-137,-222,-97,360,124,-216
1,298973,-3479,-1684,-605,-137,-222,-97,360,124,-216
1,298978,-3476,-1687,-609,-137,-228,-95,360,124,-216
1,298983,-3476,-1687,-609,-137,-228,-95,360,124,-216
1,298989,-3476,-1687,-609,-137,-228,-95,360,124,-216
1,298994,-3476,-1687,-609,-137,-228,-95,360,124,-216
1,299000,-3477,-1687,-605,-138,-229,-94,360,124,-216
1,299004,-3477,-1687,-605,-138,-229,-94,360,124,-216
1,299011,-3477,-1687,-605,-138,-229,-94,360,124,-216
1,299016,-3477,-1687,-605,-138,-229,-94,360,124,-216
1,299022,-3478,-1687,-603,-140,-227,-90,360,124,-216
1,299027,-3478,-1687,-603,-140,-227,-90,360,124,-216
1,299032,-3478,-1687,-603,-140,-227,-90,360,124,-216
1,299037,-3476,-1683,-604,-138,-226,-88,360,124,-216
1,299043,-3476,-1683,-604,-138,-226,-88,360,124,-216
1,299048,-3476,-1683,-604,-138,-226,-88,360,124,-216
1,299055,-3476,-1683,-604,-138,-226,-88,360,124,-216
1,299061,-3475,-1686,-607,-140,-227,-94,360,124,-216
1,299066,-3475,-1686,-607,-140,-227,-94,360,124,-216
1,299072,-3475,-1686,-607,-140,-227,-94,360,124,-216
1,299078,-3475,-1685,-600,-137,-232,-98,360,122,-216
1,299084,-3475,-1685,-600,-137,-232,-98,360,122,-212
1,299091,-3475,-1685,-600,-137,-232,-98,360,122,-212
1,299099,-3477,-1683,-601,-139,-227,-102,360,122,-212
1,299105,-3477,-1683,-601,-139,-227,-102,360,122,-212
1,299110,-3477,-1683,-601,-139,-227,-102,360,122,-212
1,299116,-3477,-1683,-601,-139,-227,-102,360,122,-212
1,299121,-3478,-1686,-602,-136,-222,-98,360,122,-212
1,299127,-3478,-1686,-602,-136,-222,-98,360,122,-212
1,299132,-3478,-1686,-602,-136,-222,-98,360,122,-212
1,299139,-3478,-1686,-601,-135,-220,-96,360,122,-212
1,299144,-3478,-1686,-601,-135,-220,-96,360,122,-212
1,299149,-3478,-1686,-601,-135,-220,-96,360,122,-212
1,299155,-3478,-1686,-601,-135,-220,-96,360,122,-212
1,299160,-3476,-1686,-605,-142,-223,-99,360,122,-212
1,299164,-3476,-1686,-605,-142,-223,-99,360,122,-212
1,299169,-3476,-1686,-605,-142,-223,-99,360,122,-212
1,299174,-3476,-1686,-605,-142,-223,-99,360,122,-212
1,299179,-3477,-1688,-601,-140,-223,-99,360,122,-212
1,299184,-3477,-1688,-601,-140,-223,-99,360,122,-212
1,299188,-3477,-1688,-601,-140,-223,-99,360,122,-212
1,299193,-3477,-1688,-601,-140,-223,-99,360,122,-212
1,299198,-3477,-1688,-601,-140,-223,-99,360,122,-212
1,299202,-3478,-1684,-601,-139,-226,-93,369,123,-215
1,299208,-3478,-1684,-601,-139,-226,-93,369,123,-215
1,299213,-3478,-1684,-601,-139,-226,-93,369,123,-215
1,299217,-3480,-1686,-603,-133,-223,-94,369,123,-215
1,299223,-3480,-1686,-603,-133,-223,-94,369,123,-215
1,299229,-3480,-1686,-603,-133,-223,-94,369,123,-215
1,299234,-3480,-1686,-603,-133,-223,-94,369,123,-215
1,299240,-3475,-1686,-602,-138,-229,-94,369,123,-215
1,299245,-3475,-1686,-602,-138,-229,-94,369,123,-215
1,299250,-3475,-1686,-602,-138,-229,-94,369,123,-215
1,299256,-3475,-1686,-602,-138,-229,-94,369,123,-215
1,299261,-3477,-1685,-607,-138,-229,-94,369,123,-215
1,299268,-3477,-1685,-607,-138,-229,-94,369,123,-215
1,299273,-3477,-1685,-607,-138,-229,-94,369,123,-215
1,299279,-3478,-1685,-605,-144,-228,-95,369,123,-215
1,299284,-3478,-1685,-605,-144,-228,-95,369,123,-215
1,299289,-3478,-1685,-605,-144,-228,-95,369,123,-215
1,299294,-3478,-1685,-605,-144,-228,-95,369,123,-215
1,299300,-3477,-1684,-602,-147,-222,-93,369,123,-215
1,299305,-3477,-1684,-602,-147,-222,-93,369,123,-215
1,299311,-3477,-1684,-602,-147,-222,-93,369,123,-215
1,299316,-3477,-1684,-602,-147,-222,-93,369,123,-215
1,299321,-3475,-1685,-598,-136,-222,-99,364,122,-202
1,299326,-3475,-1685,-598,-136,-222,-99,364,122,-202
1,299332,-3475,-1685,-598,-136,-222,-99,364,122,-202
1,299337,-3475,-1685,-598,-136,-222,-99,364,122,-202
1,299343,-3476,-1683,-606,-135,-221,-95,364,122,-202
1,299348,-3476,-1683,-606,-135,-221,-95,364,122,-202
1,299355,-3476,-1683,-606,-135,-221,-95,364,122,-202
1,299360,-3477,-1686,-607,-137,-223,-94,364,122,-202
1,299365,-3477,-1686,-607,-137,-223,-94,364,122,-202
1,299370,-3477,-1686,-607,-137,-223,-94,364,122,-202
1,299375,-3477,-1686,-607,-137,-223,-94,364,122,-202
1,299380,-3475,-1683,-604,-142,-225,-96,364,122,-202
1,299386,-3475,-1683,-604,-142,-225,-96,364,122,-202
1,299392,-3475,-1683,-604,-142,-225,-96,364,122,-202
1,299397,-3475,-1683,-604,-142,-225,-96,364,122,-202
1,299403,-3477,-1684,-603,-137,-223,-86,364,122,-202
1,299408,-3477,-1684,-603,-137,-223,-86,364,122,-202
1,299413,-3477,-1684,-603,-137,-223,-86,364,122,-202
1,299419,-3476,-1688,-606,-132,-227,-92,364,122,-202
1,299424,-3476,-1688,-606,-132,-227,-92,364,122,-202
1,299430,-3476,-1688,-606,-132,-227,-92,364,122,-202
1,299436,-3476,-1688,-606,-132,-227,-92,364,122,-202
1,299442,-3479,-1684,-603,-131,-223,-94,367,121,-213
1,299447,-3479,-1684,-603,-131,-223,-94,367,121,-213
1,299453,-3479,-1684,-603,-131,-223,-94,367,121,-213
1,299458,-3478,-1686,-604,-135,-222,-98,367,121,-213
1,299464,-3478,-1686,-604,-135,-222,-98,367,121,-213
1,299469,-3478,-1686,-604,-135,-222,-98,367,121,-213
1,299474,-3478,-1686,-604,-135,-222,-98,367,121,-213
1,299480,-3477,-1683,-603,-135,-228,-93,367,121,-213
1,299486,-3477,-1683,-603,-135,-228,-93,367,121,-213
1,299492,-3477,-1683,-603,-135,-228,-93,367,121,-213
1,299496,-3477,-1683,-603,-135,-228,-93,367,121,-213
1,299502,-3478,-1687,-603,-139,-223,-89,367,121,-213
1,299507,-3478,-1687,-603,-139,-223,-89,367,121,-213
1,299513,-3478,-1687,-603,-139,-223,-89,367,121,-213
1,299518,-3477,-1687,-604,-143,-230,-91,367,121,-213
1,299525,-3477,-1687,-604,-143,-230,-91,367,121,-213
1,299530,-3477,-1687,-604,-143,-230,-91,367,121,-213
1,299535,-3477,-1687,-604,-143,-230,-91,367,121,-213
1,299540,-3475,-1687,-602,-135,-235,-96,367,121,-213
1,299546,-3475,-1687,-602,-135,-235,-96,367,121,-213
1,299551,-3475,-1687,-602,-135,-235,-96,367,121,-213
1,299556,-3475,-1687,-602,-135,-235,-96,367,121,-213
1,299561,-3475,-1687,-608,-136,-222,-99,367,121,-213
1,299567,-3475,-1687,-608,-136,-222,-99,367,121,-213
1,299572,-3475,-1687,-608,-136,-222,-99,367,121,-213
1,299578,-3475,-1687,-608,-136,-222,-99,367,121,-213
1,299584,-3477,-1685,-608,-140,-227,-97,365,129,-211
1,299589,-3477,-1685,-608,-140,-227,-97,365,129,-211
1,299594,-3477,-1685,-608,-140,-227,-97,365,129,-211
1,299600,-3479,-1684,-601,-142,-228,-87,365,129,-211
1,299606,-3479,-1684,-601,-142,-228,-87,365,129,-211
1,299611,-3479,-1684,-601,-142,-228,-87,365,129,-211
1,299617,-3479,-1684,-601,-142,-228,-87,365,129,-211
1,299622,-3479,-1685,-608,-142,-227,-93,365,129,-211
1,299628,-3479,-1685,-608,-142,-227,-93,365,129,-211
1,299633,-3479,-1685,-608,-142,-227,-93,365,129,-211
1,299639,-3476,-1682,-605,-146,-224,-93,365,129,-211
1,299644,-3476,-1682,-605,-146,-224,-93,365,129,-211
1,299651,-3476,-1682,-605,-146,-224,-93,365,129,-211
1,299656,-3476,-1682,-605,-146,-224,-93,365,129,-211
1,299662,-3475,-1685,-605,-143,-224,-90,365,129,-211
1,299667,-3475,-1685,-605,-143,-224,-90,365,129,-211
1,299672,-3475,-1685,-605,-143,-224,-90,365,129,-211
1,299678,-3477,-1685,-610,-138,-222,-90,365,129,-211
1,299683,-3477,-1685,-610,-138,-222,-90,365,129,-211
1,299689,-3477,-1685,-610,-138,-222,-90,365,129,-211
1,299695,-3477,-1685,-610,-138,-222,-90,365,129,-211
1,299700,-3475,-1688,-603,-134,-216,-99,369,117,-203
1,299705,-3475,-1688,-603,-134,-216,-99,369,117,-203
1,299710,-3475,-1688,-603,-134,-216,-99,369,117,-203
1,299716,-3475,-1688,-603,-134,-216,-99,369,117,-203
1,299721,-3473,-1684,-606,-136,-220,-97,369,117,-203
1,299726,-3473,-1684,-606,-136,-220,-97,369,117,-203
1,299731,-3473,-1684,-606,-136,-220,-97,369,117,-203
1,299737,-3473,-1684,-606,-136,-220,-97,369,117,-203
1,299743,-3477,-1684,-603,-136,-220,-88,369,117,-203
1,299749,-3477,-1684,-603,-136,-220,-88,369,117,-203
1,299754,-3477,-1684,-603,-136,-220,-88,369,117,-203
1,299759,-3475,-1687,-600,-133,-228,-91,369,117,-203
1,299765,-3475,-1687,-600,-133,-228,-91,369,117,-203
1,299770,-3475,-1687,-600,-133,-228,-91,369,117,-203
1,299776,-3475,-1687,-600,-133,-228,-91,369,117,-203
1,299781,-3475,-1683,-599,-136,-233,-91,369,117,-203
1,299787,-3475,-1683,-599,-136,-233,-91,369,117,-203
1,299793,-3475,-1683,-599,-136,-233,-91,369,117,-203
1,299797,-3475,-1683,-599,-136,-233,-91,369,117,-203
1,299803,-3477,-1681,-604,-142,-237,-94,369,117,-203
1,299808,-3477,-1681,-604,-142,-237,-94,369,117,-203
1,299814,-3477,-1681,-604,-142,-237,-94,369,117,-203
1,299820,-3478,-1684,-601,-131,-224,-94,362,122,-208
1,299826,-3478,-1684,-601,-131,-224,-94,362,122,-208
1,299831,-3478,-1684,-601,-131,-224,-94,362,122,-208
1,299836,-3478,-1684,-601,-131,-224,-94,362,122,-208
1,299841,-3477,-1682,-600,-129,-228,-97,362,122,-208
1,299847,-3477,-1682,-600,-129,-228,-97,362,122,-208
1,299852,-3477,-1682,-600,-129,-228,-97,362,122,-208
1,299858,-3477,-1682,-600,-129,-228,-97,362,122,-208
1,299864,-3477,-1684,-603,-131,-232,-102,362,122,-208
1,299869,-3477,-1684,-603,-131,-232,-102,362,122,-208
1,299875,-3477,-1684,-603,-131,-232,-102,362,122,-208
1,299880,-3477,-1683,-604,-138,-230,-99,362,122,-208
1,299885,-3477,-1683,-604,-138,-230,-99,362,122,-208
1,299890,-3477,-1683,-604,-138,-230,-99,362,122,-208
1,299896,-3477,-1683,-604,-138,-230,-99,362,122,-208
1,299901,-3477,-1685,-606,-142,-223,-93,362,122,-208
1,299908,-3477,-1685,-606,-142,-223,-93,362,122,-208
1,299913,-3477,-1685,-606,-142,-223,-93,362,122,-208
1,299919,-3475,-1686,-607,-139,-217,-88,362,122,-208
1,299925,-3475,-1686,-607,-139,-217,-88,362,122,-208
1,299930,-3475,-1686,-607,-139,-217,-88,362,122,-208
1,299935,-3475,-1686,-607,-139,-217,-88,362,122,-208
1,299940,-3475,-1687,-603,-142,-230,-97,367,125,-205
1,299947,-3475,-1687,-603,-142,-230,-97,367,125,-205
1,299952,-3475,-1687,-603,-142,-230,-97,367,125,-205
1,299957,-3475,-1687,-603,-142,-230,-97,367,125,-205
1,299963,-3475,-1685,-599,-144,-230,-92,367,125,-205
1,299969,-3475,-1685,-599,-144,-230,-92,367,125,-205
1,299974,-3475,-1685,-599,-144,-230,-92,367,125,-205
1,299979,-3475,-1684,-606,-138,-222,-98,367,125,-205
1,299985,-3475,-1684,-606,-138,-222,-98,367,125,-205
1,299991,-3475,-1684,-606,-138,-222,-98,367,125,-205
1,299997,-3475,-1684,-606,-138,-222,-98,367,125,-205
1,300002,-3478,-1685,-609,-140,-222,-100,367,125,-205
1,300007,-3478,-1685,-609,-140,-222,-100,367,125,-205
1,300012,-3478,-1685,-609,-140,-222,-100,367,125,-205
1,300018,-3478,-1685,-609,-140,-222,-100,367,125,-205
1,300024,-3476,-1684,-603,-142,-216,-104,367,125,-205
1,300030,-3476,-1684,-603,-142,-216,-104,367,125,-205
1,300036,-3476,-1684,-603,-142,-216,-104,367,125,-205
1,300041,-3475,-1683,-605,-145,-228,-95,367,125,-205
1,300047,-3475,-1683,-605,-145,-228,-95,367,125,-205
1,300052,-3475,-1683,-605,-145,-228,-95,367,125,-205
1,300058,-3475,-1683,-605,-145,-228,-95,367,125,-205
1,300063,-3477,-1683,-602,-140,-223,-91,370,124,-210
1,300069,-3477,-1683,-602,-140,-223,-91,370,124,-210
1,300075,-3477,-1683,-602,-140,-223,-91,370,124,-210
1,300080,-3477,-1687,-606,-137,-223,-93,370,124,-210
1,300086,-3477,-1687,-606,-137,-223,-93,370,124,-210
1,300091,-3477,-1687,-606,-137,-223,-93,370,124,-210
1,300096,-3477,-1687,-606,-137,-223,-93,370,124,-210
1,300101,-3478,-1687,-603,-131,-219,-97,370,124,-210
1,300107,-3478,-1687,-603,-131,-219,-97,370,124,-210
1,300112,-3478,-1687,-603,-131,-219,-97,370,124,-210
1,300118,-3478,-1687,-603,-131,-219,-97,370,124,-210
1,300124,-3477,-1687,-605,-138,-230,-98,370,124,-210
1,300129,-3477,-1687,-605,-138,-230,-98,370,124,-210
1,300135,-3477,-1687,-605,-138,-230,-98,370,124,-210
1,300140,-3475,-1681,-608,-139,-235,-97,370,124,-210
1,300146,-3475,-1681,-608,-139,-235,-97,370,124,-210
1,300151,-3475,-1681,-608,-139,-235,-97,370,124,-210
1,300157,-3475,-1681,-608,-139,-235,-97,370,124,-210
1,300162,-3477,-1682,-606,-136,-228,-96,370,124,-210
1,300168,-3477,-1682,-606,-136,-228,-96,370,124,-210
1,300174,-3477,-1682,-606,-136,-228,-96,370,124,-210
1,300179,-3478,-1687,-602,-143,-221,-101,366,122,-208
1,300184,-3478,-1687,-602,-143,-221,-101,366,122,-208
1,300190,-3478,-1687,-602,-143,-221,-101,366,122,-208
1,300195,-3478,-1687,-602,-143,-221,-101,366,122,-208
1,300201,-3476,-1685,-604,-137,-229,-93,366,122,-208
1,300207,-3476,-1685,-604,-137,-229,-93,366,122,-208
1,300213,-3476,-1685,-604,-137,-229,-93,366,122,-208
1,300218,-3476,-1685,-604,-137,-229,-93,366,122,-208
1,300223,-3476,-1684,-604,-135,-230,-92,366,122,-208
1,300229,-3476,-1684,-604,-135,-230,-92,366,122,-208
1,300234,-3476,-1684,-604,-135,-230,-92,366,122,-208
1,300239,-3474,-1686,-603,-131,-231,-98,366,122,-208
1,300246,-3474,-1686,-603,-131,-231,-98,366,122,-208
1,300251,-3474,-1686,-603,-131,-231,-98,366,122,-208
1,300256,-3474,-1686,-603,-131,-231,-98,366,122,-208
1,300261,-3477,-1684,-606,-136,-225,-97,366,122,-208
1,300267,-3477,-1684,-606,-136,-225,-97,366,122,-208
1,300272,-3477,-1684,-606,-136,-225,-97,366,122,-208
1,300277,-3477,-1684,-606,-136,-225,-97,366,122,-208
1,300283,-3478,-1685,-603,-140,-224,-99,366,122,-208
1,300290,-3478,-1685,-603,-140,-224,-99,366,122,-208
1,300295,-3478,-1685,-603,-140,-224,-99,366,122,-208
1,300301,-3475,-1683,-604,-135,-227,-99,366,122,-208
1,300307,-3475,-1683,-604,-135,-227,-99,366,122,-208
1,300312,-3475,-1683,-604,-135,-227,-99,366,122,-208
1,300317,-3475,-1683,-604,-135,-227,-99,366,122,-208
1,300323,-3479,-1687,-599,-136,-228,-97,366,126,-212
1,300328,-3479,-1687,-599,-136,-228,-97,366,126,-212
1,300335,-3479,-1687,-599,-136,-228,-97,366,126,-212
1,300341,-3478,-1686,-602,-124,-219,-94,366,126,-212
1,300346,-3478,-1686,-602,-124,-219,-94,366,126,-212
1,300351,-3478,-1686,-602,-124,-219,-94,366,126,-212
1,300357,-3478,-1686,-602,-124,-219,-94,366,126,-212
1,300363,-3475,-1682,-604,-130,-225,-95,366,126,-212
1,300368,-3475,-1682,-604,-130,-225,-95,366,126,-212
1,300375,-3475,-1682,-604,-130,-225,-95,366,126,-212
1,300380,-3479,-1684,-605,-133,-234,-99,366,126,-212
1,300385,-3479,-1684,-605,-133,-234,-99,366,126,-212
1,300390,-3479,-1684,-605,-133,-234,-99,366,126,-212
1,300396,-3479,-1684,-605,-133,-234,-99,366,126,-212
1,300401,-3477,-1686,-606,-129,-232,-88,366,126,-212
1,300407,-3477,-1686,-606,-129,-232,-88,366,126,-212
1,300413,-3477,-1686,-606,-129,-232,-88,366,126,-212
1,300419,-3477,-1686,-606,-129,-232,-88,366,126,-212
1,300424,-3478,-1687,-607,-134,-232,-94,366,126,-212
1,300430,-3478,-1687,-607,-134,-232,-94,366,126,-212
1,300435,-3478,-1687,-607,-134,-232,-94,366,126,-212
1,300441,-3477,-1685,-602,-140,-226,-95,364,126,-204
1,300446,-3477,-1685,-602,-140,-226,-95,364,126,-204
1,300451,-3477,-1685,-602,-140,-226,-95,364,126,-204
1,300456,-3477,-1685,-602,-140,-226,-95,364,126,-204
1,300463,-3475,-1686,-605,-136,-229,-93,364,126,-204
1,300468,-3475,-1686,-605,-136,-229,-93,364,126,-204
1,300473,-3475,-1686,-605,-136,-229,-93,364,126,-204
1,300478,-3475,-1686,-605,-136,-229,-93,364,126,-204
1,300484,-3476,-1683,-604,-142,-223,-93,364,126,-204
1,300489,-3476,-1683,-604,-142,-223,-93,364,126,-204
1,300495,-3476,-1683,-604,-142,-223,-93,364,126,-204
1,300500,-3478,-1684,-607,-144,-228,-93,364,126,-204
1,300507,-3478,-1684,-607,-144,-228,-93,364,126,-204
1,300512,-3478,-1684,-607,-144,-228,-93,364,126,-204
1,300517,-3478,-1684,-607,-144,-228,-93,364,126,-204
1,300523,-3478,-1686,-604,-140,-234,-95,364,126,-204
1,300528,-3478,-1686,-604,-140,-234,-95,364,126,-204
1,300534,-3478,-1686,-604,-140,-234,-95,364,126,-204
1,300539,-3478,-1688,-605,-140,-238,-96,364,126,-204
1,300546,-3478,-1688,-605,-140,-238,-96,364,126,-204
1,300551,-3478,-1688,-605,-140,-238,-96,364,126,-204
1,300557,-3478,-1688,-605,-140,-238,-96,364,126,-204
1,300562,-3477,-1686,-602,-139,-227,-98,363,123,-201
1,300568,-3477,-1686,-602,-139,-227,-98,363,123,-201
1,300573,-3477,-1686,-602,-139,-227,-98,363,123,-201
1,300579,-3477,-1686,-602,-139,-227,-98,363,123,-201
1,300584,-3478,-1686,-600,-137,-224,-99,363,123,-201
1,300590,-3478,-1686,-600,-137,-224,-99,363,123,-201
1,300596,-3478,-1686,-600,-137,-224,-99,363,123,-201
1,300603,-3479,-1686,-601,-134,-225,-97,363,123,-201
1,300610,-3479,-1686,-601,-134,-225,-97,363,123,-201
1,300618,-3479,-1686,-601,-134,-225,-97,363,123,-201
1,300623,-3479,-1688,-606,-134,-232,-93,363,123,-201
1,300630,-3479,-1688,-606,-134,-232,-93,363,123,-201
1,300635,-3479,-1688,-606,-134,-232,-93,363,123,-201
1,300641,-3479,-1685,-607,-140,-224,-93,363,123,-201
1,300646,-3479,-1685,-607,-140,-224,-93,363,123,-201
1,300652,-3479,-1685,-607,-140,-224,-93,363,123,-201
1,300657,-3479,-1685,-607,-140,-224,-93,363,123,-201
1,300662,-3478,-1683,-605,-130,-214,-93,363,123,-201
1,300667,-3478,-1683,-605,-130,-214,-93,363,123,-201
1,300673,-3478,-1683,-605,-130,-214,-93,363,123,-201
1,300678,-3478,-1683,-605,-130,-214,-93,363,123,-201
1,300683,-3476,-1685,-599,-135,-223,-96,365,123,-211
1,300688,-3476,-1685,-599,-135,-223,-96,365,123,-211
1,300694,-3476,-1685,-599,-135,-223,-96,365,123,-211
1,300699,-3476,-1685,-599,-135,-223,-96,365,123,-211
1,300704,-3474,-1685,-604,-137,-229,-96,365,123,-211
1,300710,-3474,-1685,-604,-137,-229,-96,365,123,-211
1,300716,-3474,-1685,-604,-137,-229,-96,365,123,-211
1,300722,-3478,-1686,-601,-135,-223,-93,365,123,-211
1,300727,-3478,-1686,-601,-135,-223,-93,365,123,-211
1,300732,-3478,-1686,-601,-135,-223,-93,365,123,-211
1,300737,-3478,-1686,-601,-135,-223,-93,365,123,-211
1,300743,-3477,-1685,-603,-143,-230,-99,365,123,-211
1,300748,-3477,-1685,-603,-143,-230,-99,365,123,-211
1,300753,-3477,-1685,-603,-143,-230,-99,365,123,-211
1,300760,-3477,-1686,-606,-140,-229,-98,365,123,-211
1,300765,-3477,-1686,-606,-140,-229,-98,365,123,-211
1,300771,-3477,-1686,-606,-140,-229,-98,365,123,-211
1,300776,-3477,-1686,-606,-140,-229,-98,365,123,-211
1,300782,-3479,-1688,-602,-140,-223,-96,365,123,-211
1,300787,-3479,-1688,-602,-140,-223,-96,365,123,-211
1,300793,-3479,-1688,-602,-140,-223,-96,365,123,-211
1,300798,-3479,-1688,-602,-140,-223,-96,365,123,-211
1,300805,-3476,-1686,-604,-134,-223,-92,373,129,-211
1,300810,-3476,-1686,-604,-134,-223,-92,373,129,-211
1,300816,-3476,-1686,-604,-134,-223,-92,373,129,-211
1,300820,-3476,-1686,-604,-141,-228,-94,373,129,-211
1,300826,-3476,-1686,-604,-141,-228,-94,373,129,-211
1,300831,-3476,-1686,-604,-141,-228,-94,373,129,-211
1,300837,-3476,-1686,-604,-141,-228,-94,373,129,-211
1,300843,-3477,-1683,-604,-133,-227,-96,373,129,-211
1,300849,-3477,-1683,-604,-133,-227,-96,373,129,-211
1,300854,-3477,-1683,-604,-133,-227,-96,373,129,-211
1,300859,-3477,-1683,-604,-133,-227,-96,373,129,-211
1,300865,-3478,-1684,-606,-131,-230,-94,373,129,-211
1,300871,-3478,-1684,-606,-131,-230,-94,373,129,-211
1,300876,-3478,-1684,-606,-131,-230,-94,373,129,-211
1,300881,-3478,-1686,-601,-133,-239,-94,373,129,-211
1,300888,-3478,-1686,-601,-133,-239,-94,373,129,-211
1,300893,-3478,-1686,-601,-133,-239,-94,373,129,-211
1,300898,-3478,-1686,-601,-133,-239,-94,373,129,-211
1,300904,-3478,-1687,-609,-131,-231,-99,373,129,-211
1,300909,-3478,-1687,-609,-131,-231,-99,373,129,-211
1,300914,-3478,-1687,-609,-131,-231,-99,373,129,-211
1,300920,-3474,-1687,-604,-136,-229,-98,364,132,-212
1,300925,-3474,-1687,-604,-136,-229,-98,364,132,-212
1,300931,-3474,-1687,-604,-136,-229,-98,364,132,-212
1,300937,-3474,-1687,-604,-136,-229,-98,364,132,-212
1,300942,-3475,-1687,-603,-144,-225,-94,364,132,-212
1,300947,-3475,-1687,-603,-144,-225,-94,364,132,-212
1,300953,-3475,-1687,-603,-144,-225,-94,364,132,-212
1,300958,-3475,-1687,-603,-144,-225,-94,364,132,-212
1,300964,-3477,-1686,-602,-141,-229,-95,364,132,-212
1,300969,-3477,-1686,-602,-141,-229,-95,364,132,-212
1,300975,-3477,-1686,-602,-141,-229,-95,364,132,-212
1,300981,-3476,-1685,-601,-135,-226,-102,364,132,-212
1,300986,-3476,-1685,-601,-135,-226,-102,364,132,-212
1,300991,-3476,-1685,-601,-135,-226,-102,364,132,-212
1,300997,-3476,-1685,-601,-135,-226,-102,364,132,-212
1,301002,-3476,-1683,-602,-136,-226,-98,364,132,-212
1,301008,-3476,-1683,-602,-136,-226,-98,364,132,-212
1,301014,-3476,-1683,-602,-136,-226,-98,364,132,-212
1,301019,-3476,-1683,-602,-136,-226,-98,364,132,-212
1,301024,-3475,-1682,-604,-142,-228,-95,364,132,-212
1,301030,-3475,-1682,-604,-142,-228,-95,364,132,-212
1,301035,-3475,-1682,-604,-142,-228,-95,364,132,-212
1,301040,-3475,-1686,-606,-133,-231,-86,364,132,-212
1,301046,-3475,-1686,-606,-133,-231,-86,364,132,-212
1,301051,-3475,-1686,-606,-133,-231,-86,364,132,-212
1,301058,-3475,-1686,-606,-133,-231,-86,364,132,-212
1,301063,-3476,-1684,-602,-138,-232,-91,364,118,-200
1,301068,-3476,-1684,-602,-138,-232,-91,364,118,-200
1,301074,-3476,-1684,-602,-138,-232,-91,364,118,-200
1,301079,-3476,-1684,-602,-138,-232,-91,364,118,-200
1,301084,-3477,-1687,-599,-141,-224,-91,364,118,-200
1,301090,-3477,-1687,-599,-141,-224,-91,364,118,-200
1,301095,-3477,-1687,-599,-141,-224,-91,364,118,-200
1,301101,-3477,-1686,-604,-143,-229,-90,364,118,-200
1,301106,-3477,-1686,-604,-143,-229,-90,364,118,-200
1,301111,-3477,-1686,-604,-143,-229,-90,364,118,-200
1,301116,-3477,-1686,-604,-143,-229,-90,364,118,-200
1,301122,-3477,-1687,-607,-141,-220,-90,364,118,-200
1,301127,-3477,-1687,-607,-141,-220,-90,364,118,-200
1,301133,-3477,-1687,-607,-141,-220,-90,364,118,-200
1,301138,-3477,-1687,-607,-141,-220,-90,364,118,-200
1,301145,-3475,-1685,-606,-133,-228,-96,364,118,-200
1,301150,-3475,-1685,-606,-133,-228,-96,364,118,-200
1,301156,-3475,-1685,-606,-133,-228,-96,364,118,-200
1,301162,-3474,-1686,-601,-139,-236,-100,364,118,-200
1,301167,-3474,-1686,-601,-139,-236,-100,364,118,-200
1,301172,-3474,-1686,-601,-139,-236,-100,364,118,-200
1,301178,-3474,-1686,-601,-139,-236,-100,364,118,-200
1,301184,-3477,-1689,-598,-137,-232,-100,368,126,-202
1,301189,-3477,-1689,-598,-137,-232,-100,368,126,-202
1,301194,-3477,-1689,-598,-137,-232,-100,368,126,-202
1,301200,-3475,-1685,-599,-142,-222,-95,368,126,-202
1,301205,-3475,-1685,-599,-142,-222,-95,368,126,-202
1,301210,-3475,-1685,-599,-142,-222,-95,368,126,-202
1,301215,-3475,-1685,-599,-142,-222,-95,368,126,-202
1,301221,-3479,-1684,-604,-143,-227,-91,368,126,-202
1,301227,-3479,-1684,-604,-143,-227,-91,368,126,-202
1,301233,-3479,-1684,-604,-143,-227,-91,368,126,-202
1,301238,-3479,-1684,-604,-143,-227,-91,368,126,-202
1,301244,-3477,-1685,-608,-141,-228,-96,368,126,-202
1,301248,-3477,-1685,-608,-141,-228,-96,368,126,-202
1,301254,-3477,-1685,-608,-141,-228,-96,368,126,-202
1,301259,-3477,-1685,-608,-141,-228,-96,368,126,-202
1,301265,-3477,-1683,-607,-134,-223,-86,368,126,-202
1,301271,-3477,-1683,-607,-134,-223,-86,368,126,-202
1,301277,-3477,-1683,-607,-134,-223,-86,368,126,-202
1,301283,-3478,-1686,-605,-132,-232,-95,368,126,-202
1,301288,-3478,-1686,-605,-132,-232,-95,368,126,-202
1,301293,-3478,-1686,-605,-132,-232,-95,368,126,-202
1,301299,-3478,-1686,-605,-132,-232,-95,368,126,-202
1,301304,-3476,-1685,-605,-142,-233,-92,364,114,-208
1,301309,-3476,-1685,-605,-142,-233,-92,364,114,-208
1,301315,-3476,-1685,-605,-142,-233,-92,364,114,-208
1,301321,-3476,-1683,-604,-144,-229,-93,364,114,-208
1,301326,-3476,-1683,-604,-144,-229,-93,364,114,-208
1,301331,-3476,-1683,-604,-144,-229,-93,364,114,-208
1,301336,-3476,-1683,-604,-144,-229,-93,364,114,-208
1,301341,-3477,-1685,-605,-143,-225,-95,364,114,-208
1,301347,-3477,-1685,-605,-143,-225,-95,364,114,-208
1,301352,-3477,-1685,-605,-143,-225,-95,364,114,-208
1,301358,-3477,-1685,-605,-143,-225,-95,364,114,-208
1,301363,-3475,-1687,-604,-142,-228,-88,364,114,-208
1,301369,-3475,-1687,-604,-142,-228,-88,364,114,-208
1,301375,-3475,-1687,-604,-142,-228,-88,364,114,-208
1,301380,-3475,-1687,-604,-142,-228,-88,364,114,-208
1,301385,-3477,-1684,-604,-139,-230,-94,364,114,-208
1,301390,-3477,-1684,-604,-139,-230,-94,364,114,-208
1,301396,-3477,-1684,-604,-139,-230,-94,364,114,-208
1,301402,-3477,-1686,-606,-133,-229,-88,364,114,-208
1,301408,-3477,-1686,-606,-133,-229,-88,364,114,-208
1,301413,-3477,-1686,-606,-133,-229,-88,364,114,-208
1,301418,-3477,-1686,-606,-133,-229,-88,364,114,-208
1,301424,-3475,-1683,-601,-133,-233,-91,366,124,-200
1,301429,-3475,-1683,-601,-133,-233,-91,366,124,-200
1,301434,-3475,-1683,-601,-133,-233,-91,366,124,-200
1,301440,-3475,-1683,-601,-133,-233,-91,366,124,-200
1,301446,-3474,-1684,-603,-133,-221,-94,366,124,-200
1,301451,-3474,-1684,-603,-133,-221,-94,366,124,-200
1,301456,-3474,-1684,-603,-133,-221,-94,366,124,-200
1,301462,-3477,-1684,-605,-138,-218,-98,366,124,-200
1,301467,-3477,-1684,-605,-138,-218,-98,366,124,-200
1,301473,-3477,-1684,-605,-138,-218,-98,366,124,-200
1,301478,-3477,-1684,-605,-138,-218,-98,366,124,-200
1,301484,-3477,-1685,-603,-137,-229,-91,366,124,-200
1,301490,-3477,-1685,-603,-137,-229,-91,366,124,-200
1,301495,-3477,-1685,-603,-137,-229,-91,366,124,-200
1,301500,-3477,-1685,-603,-137,-229,-91,366,124,-200
1,301505,-3473,-1685,-602,-132,-225,-91,366,124,-200
1,301510,-3473,-1685,-602,-132,-225,-91,366,124,-200
1,301516,-3473,-1685,-602,-132,-225,-91,366,124,-200
1,301521,-3479,-1686,-605,-139,-227,-98,366,124,-200
1,301528,-3479,-1686,-605,-139,-227,-98,366,124,-200
1,301534,-3479,-1686,-605,-139,-227,-98,366,124,-200
1,301539,-3479,-1686,-605,-139,-227,-98,366,124,-200
1,301544,-3478,-1687,-605,-142,-224,-102,368,124,-212
1,301550,-3478,-1687,-605,-142,-224,-102,368,124,-212
1,301555,-3478,-1687,-605,-142,-224,-102,368,124,-212
1,301560,-3476,-1684,-603,-140,-233,-99,368,124,-212
1,301566,-3476,-1684,-603,-140,-233,-99,368,124,-212
1,301572,-3476,-1684,-603,-140,-233,-99,368,124,-212
1,301578,-3476,-1684,-603,-140,-233,-99,368,124,-212
1,301583,-3479,-1683,-603,-137,-233,-99,368,124,-212
1,301588,-3479,-1683,-603,-137,-233,-99,368,124,-212
1,301593,-3479,-1683,-603,-137,-233,-99,368,124,-212
1,301598,-3479,-1683,-603,-137,-233,-99,368,124,-212
1,301604,-3476,-1685,-606,-140,-233,-99,368,124,-212
1,301609,-3476,-1685,-606,-140,-233,-99,368,124,-212
1,301615,-3476,-1685,-606,-140,-233,-99,368,124,-212
1,301621,-3477,-1685,-608,-140,-229,-88,368,124,-212
1,301626,-3477,-1685,-608,-140,-229,-88,368,124,-212
1,301632,-3477,-1685,-608,-140,-229,-88,368,124,-212
1,301637,-3477,-1685,-608,-140,-229,-88,368,124,-212
1,301642,-3480,-1686,-607,-135,-232,-89,368,124,-212
1,301648,-3480,-1686,-607,-135,-232,-89,368,124,-212
1,301654,-3480,-1686,-607,-135,-232,-89,368,124,-212
1,301660,-3480,-1686,-607,-135,-232,-89,368,124,-212
1,301665,-3479,-1687,-602,-134,-233,-99,365,127,-201
1,301670,-3479,-1687,-602,-134,-233,-99,365,127,-201
1,301676,-3479,-1687,-602,-134,-233,-99,365,127,-201
1,301681,-3477,-1685,-607,-136,-221,-100,365,127,-201
1,301686,-3477,-1685,-607,-136,-221,-100,365,127,-201
1,301691,-3477,-1685,-607,-136,-221,-100,365,127,-201
1,301697,-3477,-1685,-607,-136,-221,-100,365,127,-201
1,301703,-3476,-1687,-606,-133,-223,-103,365,127,-201
1,301708,-3476,-1687,-606,-133,-223,-103,365,127,-201
1,301714,-3476,-1687,-606,-133,-223,-103,365,127,-201
1,301719,-3476,-1687,-606,-133,-223,-103,365,127,-201
1,301725,-3476,-1683,-604,-135,-240,-95,365,127,-201
1,301730,-3476,-1683,-604,-135,-240,-95,365,127,-201
1,301736,-3476,-1683,-604,-135,-240,-95,365,127,-201
1,301742,-3475,-1686,-605,-142,-226,-90,365,127,-201
1,301747,-3475,-1686,-605,-142,-226,-90,365,127,-201
1,301753,-3475,-1686,-605,-142,-226,-90,365,127,-201
1,301759,-3475,-1686,-605,-142,-226,-90,365,127,-201
1,301764,-3478,-1688,-608,-145,-226,-91,365,127,-201
1,301769,-3478,-1688,-608,-145,-226,-91,365,127,-201
1,301774,-3478,-1688,-608,-145,-226,-91,365,127,-201
1,301779,-3478,-1688,-608,-145,-226,-91,365,127,-201
1,301786,-3478,-1687,-606,-141,-227,-94,365,127,-201
1,301791,-3478,-1687,-606,-141,-227,-94,365,127,-201
1,301796,-3478,-1687,-606,-141,-227,-94,365,127,-201
1,301802,-3476,-1683,-599,-137,-236,-98,366,124,-206
1,301808,-3476,-1683,-599,-137,-236,-98,366,124,-206
1,301813,-3476,-1683,-599,-137,-236,-98,366,124,-206
1,301818,-3476,-1683,-599,-137,-236,-98,366,124,-206
1,301825,-3474,-1686,-604,-137,-223,-96,366,124,-206
1,301830,-3474,-1686,-604,-137,-223,-96,366,124,-206
1,301836,-3474,-1686,-604,-137,-223,-96,366,124,-206
1,301842,-3475,-1686,-606,-134,-228,-97,366,124,-206
1,301847,-3475,-1686,-606,-134,-228,-97,366,124,-206
1,301853,-3475,-1686,-606,-134,-228,-97,366,124,-206
1,301858,-3475,-1686,-606,-134,-228,-97,366,124,-206
1,301864,-3475,-1682,-604,-138,-235,-99,366,124,-206
1,301871,-3475,-1682,-604,-138,-235,-99,366,124,-206
1,301876,-3475,-1682,-604,-138,-235,-99,366,124,-206
1,301881,-3475,-1685,-604,-137,-228,-96,366,124,-206
1,301887,-3475,-1685,-604,-137,-228,-96,366,124,-206
1,301892,-3475,-1685,-604,-137,-228,-96,366,124,-206
1,301897,-3475,-1685,-604,-137,-228,-96,366,124,-206
1,301902,-3478,-1687,-605,-139,-231,-94,366,124,-206
1,301908,-3478,-1687,-605,-139,-231,-94,366,124,-206
1,301914,-3478,-1687,-605,-139,-231,-94,366,124,-206
1,301920,-3478,-1687,-605,-139,-231,-94,366,124,-206
1,301925,-3478,-1685,-601,-140,-230,-96,358,126,-204
1,301930,-3478,-1685,-601,-140,-230,-96,358,126,-204
1,301936,-3478,-1685,-601,-140,-230,-96,358,126,-204
1,301941,-3476,-1685,-605,-139,-232,-96,358,126,-204
1,301946,-3476,-1685,-605,-139,-232,-96,358,126,-204
1,301953,-3476,-1685,-605,-139,-232,-96,358,126,-204
1,301959,-3476,-1685,-605,-139,-232,-96,358,126,-204
1,301964,-3474,-1684,-604,-131,-228,-97,358,126,-204
1,301969,-3474,-1684,-604,-131,-228,-97,358,126,-204
1,301974,-3474,-1684,-604,-131,-228,-97,358,126,-204
1,301979,-3474,-1684,-604,-131,-228,-97,358,126,-204
1,301984,-3476,-1682,-605,-134,-224,-98,358,126,-204
1,301990,-3476,-1682,-605,-134,-224,-98,358,126,-204
1,301997,-3476,-1682,-605,-134,-224,-98,358,126,-204
1,302002,-3478,-1684,-606,-128,-221,-90,358,126,-204
1,302008,-3478,-1684,-606,-128,-221,-90,358,126,-204
1,302013,-3478,-1684,-606,-128,-221,-90,358,126,-204
1,302018,-3478,-1684,-606,-128,-221,-90,358,126,-204
1,302023,-3476,-1684,-603,-140,-231,-97,358,126,-204
1,302029,-3476,-1684,-603,-140,-231,-97,358,126,-204
1,302034,-3476,-1684,-603,-140,-231,-97,358,126,-204
1,302041,-3478,-1683,-606,-138,-229,-97,358,126,-204
1,302047,-3478,-1683,-606,-138,-229,-97,369,129,-209
1,302052,-3478,-1683,-606,-138,-229,-97,369,129,-209
1,302058,-3478,-1683,-606,-138,-229,-97,369,129,-209
1,302064,-3476,-1688,-603,-129,-226,-90,369,129,-209
1,302069,-3476,-1688,-603,-129,-226,-90,369,129,-209
1,302076,-3476,-1688,-603,-129,-226,-90,369,129,-209
1,302082,-3475,-1687,-602,-136,-228,-97,369,129,-209
1,302087,-3475,-1687,-602,-136,-228,-97,369,129,-209
1,302093,-3475,-1687,-602,-136,-228,-97,369,129,-209
1,302098,-3475,-1687,-602,-136,-228,-97,369,129,-209
1,302103,-3474,-1686,-601,-137,-233,-97,369,129,-209
1,302108,-3474,-1686,-601,-137,-233,-97,369,129,-209
1,302113,-3474,-1686,-601,-137,-233,-97,369,129,-209
1,302119,-3474,-1686,-601,-137,-233,-97,369,129,-209
1,302125,-3474,-1682,-605,-140,-229,-97,369,129,-209
1,302130,-3474,-1682,-605,-140,-229,-97,369,129,-209
1,302135,-3474,-1682,-605,-140,-229,-97,369,129,-209
1,302140,-3474,-1682,-605,-140,-229,-97,369,129,-209
1,302145,-3480,-1683,-603,-138,-225,-97,369,129,-209
1,302150,-3480,-1683,-603,-138,-225,-97,369,129,-209
1,302155,-3480,-1683,-603,-138,-225,-97,369,129,-209
1,302160,-3480,-1683,-603,-138,-225,-97,369,129,-209
1,302166,-3477,-1685,-599,-134,-222,-96,365,129,-209
1,302172,-3477,-1685,-599,-134,-222,-96,365,129,-209
1,302177,-3477,-1685,-599,-134,-222,-96,365,129,-209
1,302182,-3476,-1687,-597,-134,-225,-94,365,129,-209
1,302188,-3476,-1687,-597,-134,-225,-94,365,129,-209
1,302193,-3476,-1687,-597,-134,-225,-94,365,129,-209
1,302199,-3476,-1687,-597,-134,-225,-94,365,129,-209
1,302204,-3474,-1687,-603,-136,-226,-88,365,129,-209
1,302210,-3474,-1687,-603,-136,-226,-88,365,129,-209
1,302215,-3474,-1687,-603,-136,-226,-88,365,129,-209
1,302221,-3474,-1687,-603,-136,-226,-88,365,129,-209
1,302226,-3477,-1681,-602,-139,-226,-92,365,129,-209
1,302232,-3477,-1681,-602,-139,-226,-92,365,129,-209
1,302237,-3477,-1681,-602,-139,-226,-92,365,129,-209
1,302243,-3478,-1684,-607,-140,-227,-91,365,129,-209
1,302248,-3478,-1684,-607,-140,-227,-91,365,129,-209
1,302254,-3478,-1684,-607,-140,-227,-91,365,129,-209
1,302260,-3478,-1684,-607,-140,-227,-91,365,129,-209
1,302265,-3475,-1685,-604,-136,-226,-92,365,129,-209
1,302270,-3475,-1685,-604,-136,-226,-92,365,129,-209
1,302275,-3475,-1685,-604,-136,-226,-92,365,129,-209
1,302280,-3475,-1685,-604,-136,-226,-92,365,129,-209
1,302285,-3475,-1685,-604,-136,-236,-95,365,125,-209
1,302291,-3475,-1685,-604,-136,-236,-95,365,125,-209
1,302297,-3475,-1685,-604,-136,-236,-95,365,125,-209
1,302303,-3479,-1689,-604,-136,-226,-93,365,125,-209
1,302308,-3479,-1689,-604,-136,-226,-93,365,125,-209
1,302314,-3479,-1689,-604,-136,-226,-93,365,125,-209
1,302319,-3479,-1689,-604,-136,-226,-93,365,125,-209
1,302325,-3476,-1684,-604,-135,-224,-93,365,125,-209
1,302330,-3476,-1684,-604,-135,-224,-93,365,125,-209
1,302336,-3476,-1684,-604,-135,-224,-93,365,125,-209
1,302341,-3476,-1684,-604,-135,-224,-93,365,125,-209
1,302346,-3476,-1683,-603,-137,-226,-101,365,125,-209
1,302352,-3476,-1683,-603,-137,-226,-101,365,125,-209
1,302357,-3476,-1683,-603,-137,-226,-101,365,125,-209
1,302362,-3475,-1686,-609,-137,-225,-95,365,125,-209
1,302367,-3475,-1686,-609,-137,-225,-95,365,125,-209
1,302373,-3475,-1686,-609,-137,-225,-95,365,125,-209
1,302379,-3475,-1686,-609,-137,-225,-95,365,125,-209
1,302385,-3481,-1684,-603,-138,-223,-90,365,125,-209
1,302390,-3481,-1684,-603,-138,-223,-90,365,125,-209
1,302396,-3481,-1684,-603,-138,-223,-90,365,125,-209
1,302401,-3481,-1684,-603,-138,-223,-90,365,125,-209
1,302406,-3477,-1683,-609,-131,-216,-97,365,125,-209
1,302411,-3477,-1683,-609,-131,-216,-97,365,125,-209
1,302417,-3477,-1683,-609,-131,-216,-97,365,125,-209
1,302423,-3476,-1687,-602,-139,-227,-97,365,125,-207
1,302428,-3476,-1687,-602,-139,-227,-97,365,125,-207
1,302433,-3476,-1687,-602,-139,-227,-97,365,125,-207
1,302439,-3476,-1687,-602,-139,-227,-97,365,125,-207
1,302444,-3477,-1688,-603,-135,-232,-94,365,125,-207
1,302449,-3477,-1688,-603,-135,-232,-94,365,125,-207
1,302455,-3477,-1688,-603,-135,-232,-94,365,125,-207
1,302460,-3477,-1688,-603,-135,-232,-94,365,125,-207
1,302466,-3477,-1685,-607,-138,-231,-88,365,125,-207
1,302472,-3477,-1685,-607,-138,-231,-88,365,125,-207
1,302477,-3477,-1685,-607,-138,-231,-88,365,125,-207
1,302482,-3473,-1684,-607,-132,-232,-95,365,125,-207
1,302487,-3473,-1684,-607,-132,-232,-95,365,125,-207
1,302492,-3473,-1684,-607,-132,-232,-95,365,125,-207
1,302498,-3473,-1684,-607,-132,-232,-95,365,125,-207
1,302503,-3475,-1685,-602,-133,-235,-94,365,125,-207
1,302510,-3475,-1685,-602,-133,-235,-94,365,125,-207
1,302515,-3475,-1685,-602,-133,-235,-94,365,125,-207
1,302520,-3475,-1685,-602,-133,-235,-94,365,125,-207
1,302526,-3476,-1683,-609,-127,-227,-95,365,125,-207
1,302531,-3476,-1683,-609,-127,-227,-95,365,125,-207
1,302536,-3476,-1683,-609,-127,-227,-95,365,125,-207
1,302541,-3478,-1685,-600,-132,-228,-93,372,116,-206
1,302547,-3478,-1685,-600,-132,-228,-93,372,116,-206
1,302553,-3478,-1685,-600,-132,-228,-93,372,116,-206
1,302558,-3478,-1685,-600,-132,-228,-93,372,116,-206
1,302563,-3479,-1685,-603,-136,-224,-93,372,116,-206
1,302569,-3479,-1685,-603,-136,-224,-93,372,116,-206
1,302575,-3479,-1685,-603,-136,-224,-93,372,116,-206
1,302580,-3479,-1685,-603,-136,-224,-93,372,116,-206
1,302585,-3479,-1684,-607,-129,-226,-92,372,116,-206
1,302590,-3479,-1684,-607,-129,-226,-92,372,116,-206
1,302597,-3479,-1684,-607,-129,-226,-92,372,116,-206
1,302602,-3477,-1685,-605,-134,-225,-92,372,116,-206
1,302607,-3477,-1685,-605,-134,-225,-92,372,116,-206
1,302613,-3477,-1685,-605,-134,-225,-92,372,116,-206
1,302618,-3477,-1685,-605,-134,-225,-92,372,116,-206
1,302623,-3477,-1682,-605,-140,-229,-91,372,116,-206
1,302628,-3477,-1682,-605,-140,-229,-91,372,116,-206
1,302633,-3477,-1682,-605,-140,-229,-91,372,116,-206
1,302640,-3477,-1682,-605,-140,-229,-91,372,116,-206
1,302645,-3481,-1684,-603,-133,-221,-97,372,116,-206
1,302650,-3481,-1684,-603,-133,-221,-97,372,116,-206
1,302655,-3481,-1684,-603,-133,-221,-97,372,116,-206
1,302661,-3481,-1684,-603,-133,-221,-97,372,116,-206
1,302666,-3475,-1683,-607,-136,-227,-96,369,123,-197
1,302671,-3475,-1683,-607,-136,-227,-96,369,123,-197
1,302676,-3475,-1683,-607,-136,-227,-96,369,123,-197
1,302683,-3477,-1684,-601,-134,-229,-95,369,123,-197
1,302690,-3477,-1684,-601,-134,-229,-95,369,123,-197
1,302697,-3477,-1684,-601,-134,-229,-95,369,123,-197
1,302704,-3479,-1684,-610,-141,-228,-96,369,123,-197
1,302709,-3479,-1684,-610,-141,-228,-96,369,123,-197
1,302715,-3479,-1684,-610,-141,-228,-96,369,123,-197
1,302721,-3479,-1684,-610,-141,-228,-96,369,123,-197
1,302726,-3477,-1688,-606,-136,-229,-91,369,123,-197
1,302732,-3477,-1688,-606,-136,-229,-91,369,123,-197
1,302737,-3477,-1688,-606,-136,-229,-91,369,123,-197
1,302743,-3478,-1683,-606,-137,-228,-95,369,123,-197
1,302748,-3478,-1683,-606,-137,-228,-95,369,123,-197
1,302753,-3478,-1683,-606,-137,-228,-95,369,123,-197
1,302759,-3478,-1683,-606,-137,-228,-95,369,123,-197
1,302765,-3476,-1685,-603,-139,-234,-99,369,123,-197
1,302770,-3476,-1685,-603,-139,-234,-99,369,123,-197
1,302776,-3476,-1685,-603,-139,-234,-99,369,123,-197
1,302781,-3476,-1685,-603,-139,-234,-99,369,123,-197
1,302787,-3475,-1685,-600,-136,-239,-94,367,115,-209
1,302792,-3475,-1685,-600,-136,-239,-94,367,115,-209
1,302797,-3475,-1685,-600,-136,-239,-94,367,115,-209
1,302802,-3477,-1682,-602,-137,-220,-93,367,115,-209
1,302809,-3477,-1682,-602,-137,-220,-93,367,115,-209
1,302814,-3477,-1682,-602,-137,-220,-93,367,115,-209
1,302819,-3477,-1682,-602,-137,-220,-93,367,115,-209
1,302825,-3478,-1683,-608,-140,-224,-96,367,115,-209
1,302831,-3478,-1683,-608,-140,-224,-96,367,115,-209
1,302837,-3478,-1683,-608,-140,-224,-96,367,115,-209
1,302842,-3477,-1685,-607,-139,-224,-94,367,115,-209
1,302848,-3477,-1685,-607,-139,-224,-94,367,115,-209
1,302854,-3477,-1685,-607,-139,-224,-94,367,115,-209
1,302859,-3477,-1685,-607,-139,-224,-94,367,115,-209
1,302864,-3474,-1684,-604,-136,-229,-99,367,115,-209
1,302870,-3474,-1684,-604,-136,-229,-99,367,115,-209
1,302875,-3474,-1684,-604,-136,-229,-99,367,115,-209
1,302880,-3474,-1684,-604,-136,-229,-99,367,115,-209
1,302886,-3476,-1686,-603,-136,-228,-94,367,115,-209
1,302892,-3476,-1686,-603,-136,-228,-94,367,115,-209
1,302898,-3476,-1686,-603,-136,-228,-94,367,115,-209
1,302903,-3475,-1680,-600,-135,-230,-91,370,124,-210
1,302909,-3475,-1680,-600,-135,-230,-91,370,124,-210
1,302915,-3475,-1680,-600,-135,-230,-91,370,124,-210
1,302922,-3479,-1685,-603,-132,-222,-92,370,124,-210
1,302927,-3479,-1685,-603,-132,-222,-92,370,124,-210
1,302934,-3479,-1685,-603,-132,-222,-92,370,124,-210
1,302939,-3479,-1685,-603,-132,-222,-92,370,124,-210
1,302944,-3476,-1684,-602,-133,-221,-96,370,124,-210
1,302949,-3476,-1684,-602,-133,-221,-96,370,124,-210
1,302955,-3476,-1684,-602,-133,-221,-96,370,124,-210
1,302960,-3476,-1684,-602,-133,-221,-96,370,124,-210
1,302964,-3477,-1688,-606,-136,-226,-99,370,124,-210
1,302969,-3477,-1688,-606,-136,-226,-99,370,124,-210
1,302976,-3477,-1688,-606,-136,-226,-99,370,124,-210
1,302981,-3477,-1688,-606,-136,-226,-99,370,124,-210
1,302986,-3475,-1686,-604,-142,-227,-97,370,124,-210
1,302991,-3475,-1686,-604,-142,-227,-97,370,124,-210
1,302997,-3475,-1686,-604,-142,-227,-97,370,124,-210
1,303003,-3478,-1683,-601,-142,-229,-97,370,124,-210
1,303008,-3478,-1683,-601,-142,-229,-97,370,124,-210
1,303013,-3478,-1683,-601,-142,-229,-97,370,124,-210
1,303020,-3478,-1683,-601,-142,-229,-97,370,124,-210
1,303026,-3476,-1686,-605,-138,-227,-99,362,134,-208
1,303031,-3476,-1686,-605,-138,-227,-99,362,134,-208
1,303037,-3476,-1686,-605,-138,-227,-99,362,134,-208
1,303043,-3476,-1684,-601,-139,-228,-93,362,134,-208
1,303048,-3476,-1684,-601,-139,-228,-93,362,134,-208
1,303053,-3476,-1684,-601,-139,-228,-93,362,134,-208
1,303059,-3476,-1684,-601,-139,-228,-93,362,134,-208
1,303065,-3474,-1682,-602,-134,-219,-92,362,134,-208
1,303070,-3474,-1682,-602,-134,-219,-92,362,134,-208
1,303076,-3474,-1682,-602,-134,-219,-92,362,134,-208
1,303081,-3474,-1682,-602,-134,-219,-92,362,134,-208
1,303086,-3475,-1683,-607,-141,-227,-98,362,134,-208
1,303091,-3475,-1683,-607,-141,-227,-98,362,134,-208
1,303097,-3475,-1683,-607,-141,-227,-98,362,134,-208
1,303102,-3476,-1686,-608,-133,-226,-93,362,134,-208
1,303109,-3476,-1686,-608,-133,-226,-93,362,134,-208
1,303114,-3476,-1686,-608,-133,-226,-93,362,134,-208
1,303119,-3476,-1686,-608,-133,-226,-93,362,134,-208
1,303125,-3477,-1684,-605,-137,-234,-92,362,134,-208
1,303130,-3477,-1684,-605,-137,-234,-92,362,134,-208
1,303135,-3477,-1684,-605,-137,-234,-92,362,134,-208
1,303141,-3477,-1684,-605,-137,-234,-92,362,134,-208
1,303148,-3476,-1686,-603,-141,-230,-98,362,134,-208
1,303153,-3476,-1686,-603,-141,-230,-98,362,134,-208
1,303159,-3476,-1686,-603,-141,-230,-98,362,134,-208
1,303164,-3475,-1684,-603,-142,-223,-98,372,132,-206
1,303170,-3475,-1684,-603,-142,-223,-98,372,132,-206
1,303175,-3475,-1684,-603,-142,-223,-98,372,132,-206
1,303180,-3475,-1684,-603,-142,-223,-98,372,132,-206
1,303186,-3477,-1686,-604,-139,-220,-95,372,132,-206
1,303192,-3477,-1686,-604,-139,-220,-95,372,132,-206
1,303197,-3477,-1686,-604,-139,-220,-95,372,132,-206
1,303203,-3476,-1685,-606,-135,-217,-92,372,132,-206
1,303208,-3476,-1685,-606,-135,-217,-92,372,132,-206
1,303213,-3476,-1685,-606,-135,-217,-92,372,132,-206
1,303219,-3476,-1685,-606,-135,-217,-92,372,132,-206
1,303224,-3475,-1687,-604,-134,-224,-90,372,132,-206
1,303229,-3475,-1687,-604,-134,-224,-90,372,132,-206
1,303235,-3475,-1687,-604,-134,-224,-90,372,132,-206
1,303241,-3475,-1687,-604,-134,-224,-90,372,132,-206
1,303246,-3477,-1682,-605,-134,-223,-95,372,132,-206
1,303252,-3477,-1682,-605,-134,-223,-95,372,132,-206
1,303258,-3477,-1682,-605,-134,-223,-95,372,132,-206
1,303263,-3478,-1685,-603,-131,-230,-93,372,132,-206
1,303268,-3478,-1685,-603,-131,-230,-93,372,132,-206
1,303275,-3478,-1685,-603,-131,-230,-93,372,132,-206
1,303280,-3478,-1685,-603,-131,-230,-93,372,132,-206
1,303286,-3478,-1685,-601,-137,-230,-98,365,121,-199
1,303292,-3478,-1685,-601,-137,-230,-98,365,121,-199
1,303298,-3478,-1685,-601,-137,-230,-98,365,121,-199
1,303303,-3478,-1687,-601,-139,-222,-90,365,121,-199
1,303309,-3478,-1687,-601,-139,-222,-90,365,121,-199
1,303314,-3478,-1687,-601,-139,-222,-90,365,121,-199
1,303320,-3478,-1687,-601,-139,-222,-90,365,121,-199
1,303326,-3478,-1685,-603,-138,-229,-97,365,121,-199
1,303331,-3478,-1685,-603,-138,-229,-97,365,121,-199
1,303337,-3478,-1685,-603,-138,-229,-97,365,121,-199
1,303343,-3477,-1684,-604,-133,-226,-96,365,121,-199
1,303348,-3477,-1684,-604,-133,-226,-96,365,121,-199
1,303353,-3477,-1684,-604,-133,-226,-96,365,121,-199
1,303360,-3477,-1684,-604,-133,-226,-96,365,121,-199
1,303364,-3476,-1687,-606,-139,-231,-96,365,121,-199
1,303370,-3476,-1687,-606,-139,-231,-96,365,121,-199
1,303375,-3476,-1687,-606,-139,-231,-96,365,121,-199
1,303381,-3476,-1687,-606,-139,-231,-96,365,121,-199
1,303386,-3475,-1685,-605,-138,-222,-89,365,121,-199
1,303392,-3475,-1685,-605,-138,-222,-89,365,121,-199
1,303397,-3475,-1685,-605,-138,-222,-89,365,121,-199
1,303404,-3478,-1685,-602,-128,-233,-94,374,126,-204
1,303409,-3478,-1685,-602,-128,-233,-94,374,126,-204
1,303414,-3478,-1685,-602,-128,-233,-94,374,126,-204
1,303419,-3478,-1685,-602,-128,-233,-94,374,126,-204
1,303424,-3479,-1686,-605,-136,-231,-97,374,126,-204
1,303429,-3479,-1686,-605,-136,-231,-97,374,126,-204
1,303434,-3479,-1686,-605,-136,-231,-97,374,126,-204
1,303440,-3479,-1686,-605,-136,-231,-97,374,126,-204
1,303446,-3478,-1686,-604,-143,-230,-94,374,126,-204
1,303452,-3478,-1686,-604,-143,-230,-94,374,126,-204
1,303456,-3478,-1686,-604,-143,-230,-94,374,126,-204
1,303462,-3478,-1686,-604,-143,-230,-94,374,126,-204
1,303468,-3475,-1686,-603,-141,-225,-86,374,126,-204
1,303473,-3475,-1686,-603,-141,-225,-86,374,126,-204
1,303478,-3475,-1686,-603,-141,-225,-86,374,126,-204
1,303483,-3477,-1684,-605,-134,-224,-84,374,126,-204
1,303489,-3477,-1684,-605,-134,-224,-84,374,126,-204
1,303495,-3477,-1684,-605,-134,-224,-84,374,126,-204
1,303500,-3477,-1684,-605,-134,-224,-84,374,126,-204
1,303505,-3475,-1686,-602,-136,-235,-96,374,126,-204
1,303511,-3475,-1686,-602,-136,-235,-96,374,126,-204
1,303516,-3475,-1686,-602,-136,-235,-96,374,126,-204
1,303522,-3475,-1686,-602,-136,-235,-96,374,126,-204
1,303527,-3477,-1685,-601,-136,-236,-96,368,110,-202
1,303534,-3477,-1685,-601,-136,-236,-96,368,110,-202
1,303540,-3477,-1685,-601,-136,-236,-96,368,110,-202
1,303545,-3476,-1685,-602,-137,-232,-98,368,110,-202
1,303551,-3476,-1685,-602,-137,-232,-98,368,110,-202
1,303556,-3476,-1685,-602,-137,-232,-98,368,110,-202
1,303561,-3476,-1685,-602,-137,-232,-98,368,110,-202
1,303567,-3476,-1682,-601,-135,-229,-94,368,110,-202
1,303572,-3476,-1682,-601,-135,-229,-94,368,110,-202
1,303578,-3476,-1682,-601,-135,-229,-94,368,110,-202
1,303584,-3476,-1685,-604,-133,-228,-98,368,110,-202
1,303588,-3476,-1685,-604,-133,-228,-98,368,110,-202
1,303594,-3476,-1685,-604,-133,-228,-98,368,110,-202
1,303599,-3476,-1685,-604,-133,-228,-98,368,110,-202
1,303604,-3478,-1687,-606,-128,-230,-97,368,110,-202
1,303609,-3478,-1687,-606,-128,-230,-97,368,110,-202
1,303616,-3478,-1687,-606,-128,-230,-97,368,110,-202
1,303621,-3478,-1687,-606,-128,-230,-97,368,110,-202
1,303627,-3476,-1685,-609,-132,-236,-97,368,110,-202
1,303632,-3476,-1685,-609,-132,-236,-97,368,110,-202
1,303637,-3476,-1685,-609,-132,-236,-97,368,110,-202
1,303642,-3477,-1685,-599,-135,-235,-92,366,126,-212
1,303648,-3477,-1685,-599,-135,-235,-92,366,126,-212
1,303653,-3477,-1685,-599,-135,-235,-92,366,126,-212
1,303660,-3477,-1685,-599,-135,-235,-92,366,126,-212
1,303665,-3477,-1687,-603,-135,-228,-97,366,126,-212
1,303670,-3477,-1687,-603,-135,-228,-97,366,126,-212
1,303676,-3477,-1687,-603,-135,-228,-97,366,126,-212
1,303681,-3477,-1687,-603,-135,-228,-97,366,126,-212
1,303686,-3476,-1685,-606,-134,-232,-97,366,126,-212
1,303691,-3476,-1685,-606,-134,-232,-97,366,126,-212
1,303696,-3476,-1685,-606,-134,-232,-97,366,126,-212
1,303703,-3478,-1686,-608,-132,-233,-93,366,126,-212
1,303708,-3478,-1686,-608,-132,-233,-93,366,126,-212
1,303714,-3478,-1686,-608,-132,-233,-93,366,126,-212
1,303719,-3478,-1686,-608,-132,-233,-93,366,126,-212
1,303725,-3475,-1685,-606,-129,-230,-93,366,126,-212
1,303730,-3475,-1685,-606,-129,-230,-93,366,126,-212
1,303735,-3475,-1685,-606,-129,-230,-93,366,126,-212
1,303741,-3475,-1685,-606,-129,-230,-93,366,126,-212
1,303747,-3478,-1684,-601,-140,-232,-92,366,126,-212
1,303753,-3478,-1684,-601,-140,-232,-92,366,126,-212
1,303758,-3478,-1684,-601,-140,-232,-92,366,126,-212
1,303764,-3477,-1684,-604,-133,-231,-86,359,129,-203
1,303769,-3477,-1684,-604,-133,-231,-86,359,129,-203
1,303775,-3477,-1684,-604,-133,-231,-86,359,129,-203
1,303780,-3477,-1684,-604,-133,-231,-86,359,129,-203
1,303785,-3479,-1687,-599,-137,-234,-91,359,129,-203
1,303791,-3479,-1687,-599,-137,-234,-91,359,129,-203
1,303797,-3479,-1687,-599,-137,-234,-91,359,129,-203
1,303802,-3479,-1687,-599,-137,-234,-91,359,129,-203
1,303808,-3477,-1683,-606,-135,-233,-97,359,129,-203
1,303813,-3477,-1683,-606,-135,-233,-97,359,129,-203
1,303818,-3477,-1683,-606,-135,-233,-97,359,129,-203
1,303824,-3475,-1683,-604,-127,-223,-97,359,129,-203
1,303830,-3475,-1683,-604,-127,-223,-97,359,129,-203
1,303836,-3475,-1683,-604,-127,-223,-97,359,129,-203
1,303842,-3475,-1683,-604,-127,-223,-97,359,129,-203
1,303847,-3478,-1683,-606,-135,-228,-96,359,129,-203
1,303852,-3478,-1683,-606,-135,-228,-96,359,129,-203
1,303858,-3478,-1683,-606,-135,-228,-96,359,129,-203
1,303863,-3475,-1683,-603,-134,-231,-98,359,129,-203
1,303868,-3475,-1683,-603,-134,-231,-98,359,129,-203
1,303875,-3475,-1683,-603,-134,-231,-98,359,129,-203
1,303880,-3475,-1683,-603,-134,-231,-98,359,129,-203
1,303886,-3477,-1686,-606,-136,-228,-101,359,129,-203
1,303891,-3477,-1686,-606,-136,-228,-101,359,129,-203
1,303896,-3477,-1686,-606,-136,-228,-101,359,129,-203
1,303901,-3477,-1686,-606,-136,-228,-101,359,129,-203
1,303907,-3477,-1682,-604,-135,-227,-97,362,126,-208
1,303912,-3477,-1682,-604,-135,-227,-97,362,126,-208
1,303918,-3477,-1682,-604,-135,-227,-97,362,126,-208
1,303924,-3476,-1685,-603,-137,-226,-101,362,126,-208
1,303928,-3476,-1685,-603,-137,-226,-101,362,126,-208
1,303933,-3476,-1685,-603,-137,-226,-101,362,126,-208
1,303938,-3476,-1685,-603,-137,-226,-101,362,126,-208
1,303943,-3476,-1687,-608,-141,-230,-95,362,126,-208
1,303949,-3476,-1687,-608,-141,-230,-95,362,126,-208
1,303954,-3476,-1687,-608,-141,-230,-95,362,126,-208
1,303960,-3476,-1687,-608,-141,-230,-95,362,126,-208
1,303965,-3475,-1683,-606,-145,-225,-94,362,126,-208
1,303971,-3475,-1683,-606,-145,-225,-94,362,126,-208
1,303976,-3475,-1683,-606,-145,-225,-94,362,126,-208
1,303982,-3475,-1683,-606,-145,-225,-94,362,126,-208
1,303988,-3479,-1686,-605,-139,-222,-95,362,126,-208
1,303993,-3479,-1686,-605,-139,-222,-95,362,126,-208
1,304000,-3479,-1686,-605,-139,-222,-95,362,126,-208
1,304005,-3477,-1684,-598,-135,-220,-89,362,126,-208
1,304010,-3477,-1684,-598,-135,-220,-89,362,126,-208
1,304015,-3477,-1684,-598,-135,-220,-89,362,126,-208
1,304021,-3477,-1684,-598,-135,-220,-89,362,126,-208
1,304026,-3477,-1687,-603,-136,-224,-98,359,127,-207
1,304032,-3477,-1687,-603,-136,-224,-98,359,127,-207
1,304037,-3477,-1687,-603,-136,-224,-98,359,127,-207
1,304043,-3477,-1687,-603,-136,-224,-98,359,127,-207
1,304048,-3476,-1687,-606,-137,-225,-96,359,127,-207
1,304053,-3476,-1687,-606,-137,-225,-96,359,127,-207
1,304059,-3476,-1687,-606,-137,-225,-96,359,127,-207
1,304064,-3476,-1687,-601,-141,-227,-99,359,127,-207
1,304070,-3476,-1687,-601,-141,-227,-99,359,127,-207
1,304075,-3476,-1687,-601,-141,-227,-99,359,127,-207
1,304080,-3476,-1687,-601,-141,-227,-99,359,127,-207
1,304087,-3476,-1684,-599,-136,-227,-95,359,127,-207
1,304092,-3476,-1684,-599,-136,-227,-95,359,127,-207
1,304098,-3476,-1684,-599,-136,-227,-95,359,127,-207
1,304103,-3476,-1682,-603,-133,-225,-87,359,127,-207
1,304108,-3476,-1682,-603,-133,-225,-87,359,127,-207
1,304114,-3476,-1682,-603,-133,-225,-87,359,127,-207
1,304119,-3476,-1682,-603,-133,-225,-87,359,127,-207
1,304124,-3479,-1684,-601,-132,-226,-91,359,127,-207
1,304131,-3479,-1684,-601,-132,-226,-91,359,127,-207
1,304136,-3479,-1684,-601,-132,-226,-91,359,127,-207
1,304142,-3479,-1684,-601,-132,-226,-91,359,127,-207
1,304148,-3474,-1685,-599,-135,-228,-88,368,124,-210
1,304154,-3474,-1685,-599,-135,-228,-88,368,124,-210
1,304159,-3474,-1685,-599,-135,-228,-88,368,124,-210
1,304164,-3473,-1687,-605,-144,-224,-98,368,124,-210
1,304169,-3473,-1687,-605,-144,-224,-98,368,124,-210
1,304175,-3473,-1687,-605,-144,-224,-98,368,124,-210
1,304181,-3473,-1687,-605,-144,-224,-98,368,124,-210
1,304186,-3478,-1684,-607,-135,-235,-96,368,124,-210
1,304192,-3478,-1684,-607,-135,-235,-96,368,124,-210
1,304197,-3478,-1684,-607,-135,-235,-96,368,124,-210
1,304202,-3478,-1684,-607,-135,-235,-96,368,124,-210
1,304208,-3480,-1684,-604,-135,-226,-97,368,124,-210
1,304214,-3480,-1684,-604,-135,-226,-97,368,124,-210
1,304219,-3480,-1684,-604,-135,-226,-97,368,124,-210
1,304225,-3473,-1690,-607,-132,-232,-94,368,124,-210
1,304230,-3473,-1690,-607,-132,-232,-94,368,124,-210
1,304235,-3473,-1690,-607,-132,-232,-94,368,124,-210
1,304241,-3473,-1690,-607,-132,-232,-94,368,124,-210
1,304246,-3475,-1687,-605,-138,-225,-97,368,124,-210
1,304252,-3475,-1687,-605,-138,-225,-97,368,124,-210
1,304258,-3475,-1687,-605,-138,-225,-97,368,124,-210
1,304263,-3478,-1685,-605,-133,-223,-105,366,124,-210
1,304268,-3478,-1685,-605,-133,-223,-105,366,122,-202
1,304274,-3478,-1685,-605,-133,-223,-105,366,122,-202
1,304280,-3478,-1685,-605,-133,-223,-105,366,122,-202
1,304285,-3478,-1684,-598,-136,-224,-95,366,122,-202
1,304290,-3478,-1684,-598,-136,-224,-95,366,122,-202
1,304296,-3478,-1684,-598,-136,-224,-95,366,122,-202
1,304302,-3478,-1684,-598,-136,-224,-95,366,122,-202
1,304308,-3474,-1686,-604,-134,-228,-91,366,122,-202
1,304314,-3474,-1686,-604,-134,-228,-91,366,122,-202
1,304319,-3474,-1686,-604,-134,-228,-91,366,122,-202
1,304325,-3474,-1685,-600,-138,-229,-92,366,122,-202
1,304330,-3474,-1685,-600,-138,-229,-92,366,122,-202
1,304335,-3474,-1685,-600,-138,-229,-92,366,122,-202
1,304342,-3474,-1685,-600,-138,-229,-92,366,122,-202
1,304347,-3478,-1684,-604,-142,-232,-99,366,122,-202
1,304352,-3478,-1684,-604,-142,-232,-99,366,122,-202
1,304356,-3478,-1684,-604,-142,-232,-99,366,122,-202
1,304362,-3478,-1684,-604,-142,-232,-99,366,122,-202
1,304367,-3476,-1686,-608,-134,-228,-96,366,122,-202
1,304373,-3476,-1686,-608,-134,-228,-96,366,122,-202
1,304378,-3476,-1686,-608,-134,-228,-96,366,122,-202
1,304384,-3475,-1685,-600,-131,-233,-89,366,122,-202
1,304389,-3475,-1685,-600,-131,-233,-89,362,124,-212
1,304394,-3475,-1685,-600,-131,-233,-89,362,124,-212
1,304400,-3475,-1685,-600,-131,-233,-89,362,124,-212
1,304405,-3478,-1686,-603,-137,-229,-87,362,124,-212
1,304410,-3478,-1686,-603,-137,-229,-87,362,124,-212
1,304415,-3478,-1686,-603,-137,-229,-87,362,124,-212
1,304420,-3478,-1686,-603,-137,-229,-87,362,124,-212
1,304427,-3476,-1684,-605,-136,-225,-95,362,124,-212
1,304432,-3476,-1684,-605,-136,-225,-95,362,124,-212
1,304438,-3476,-1684,-605,-136,-225,-95,362,124,-212
1,304443,-3476,-1684,-605,-136,-225,-95,362,124,-212
1,304448,-3476,-1688,-608,-137,-231,-92,362,124,-212
1,304454,-3476,-1688,-608,-137,-231,-92,362,124,-212
1,304459,-3476,-1688,-608,-137,-231,-92,362,124,-212
1,304464,-3475,-1683,-605,-140,-227,-94,362,124,-212
1,304471,-3475,-1683,-605,-140,-227,-94,362,124,-212
1,304476,-3475,-1683,-605,-140,-227,-94,362,124,-212
1,304482,-3475,-1683,-605,-140,-227,-94,362,124,-212
1,304487,-3475,-1686,-606,-142,-222,-93,362,124,-212
1,304492,-3475,-1686,-606,-142,-222,-93,362,124,-212
1,304497,-3475,-1686,-606,-142,-222,-93,362,124,-212
1,304503,-3478,-1686,-602,-145,-225,-89,362,124,-212
1,304508,-3478,-1686,-602,-145,-225,-89,367,131,-213
1,304514,-3478,-1686,-602,-145,-225,-89,367,131,-213
1,304520,-3478,-1686,-602,-145,-225,-89,367,131,-213
1,304525,-3480,-1685,-603,-133,-222,-100,367,131,-213
1,304531,-3480,-1685,-603,-133,-222,-100,367,131,-213
1,304536,-3480,-1685,-603,-133,-222,-100,367,131,-213
1,304541,-3480,-1685,-603,-133,-222,-100,367,131,-213
1,304547,-3475,-1684,-601,-135,-233,-106,367,131,-213
1,304552,-3475,-1684,-601,-135,-233,-106,367,131,-213
1,304559,-3475,-1684,-601,-135,-233,-106,367,131,-213
1,304564,-3477,-1683,-602,-137,-230,-100,367,131,-213
1,304570,-3477,-1683,-602,-137,-230,-100,367,131,-213
1,304575,-3477,-1683,-602,-137,-230,-100,367,131,-213
1,304580,-3477,-1683,-602,-137,-230,-100,367,131,-213
1,304586,-3475,-1688,-607,-135,-223,-100,367,131,-213
1,304591,-3475,-1688,-607,-135,-223,-100,367,131,-213
1,304596,-3475,-1688,-607,-135,-223,-100,367,131,-213
1,304603,-3475,-1688,-607,-135,-223,-100,367,131,-213
1,304608,-3481,-1685,-610,-144,-228,-102,367,131,-213
1,304613,-3481,-1685,-610,-144,-228,-102,367,131,-213
1,304619,-3481,-1685,-610,-144,-228,-102,367,131,-213
1,304624,-3476,-1686,-607,-134,-225,-94,367,131,-213
1,304629,-3476,-1686,-607,-134,-225,-94,367,131,-213
1,304634,-3476,-1686,-607,-134,-225,-94,367,131,-213
1,304641,-3476,-1686,-607,-134,-225,-94,367,131,-213
1,304647,-3477,-1683,-602,-132,-213,-98,370,122,-214
1,304652,-3477,-1683,-602,-132,-213,-98,370,122,-214
1,304658,-3477,-1683,-602,-132,-213,-98,370,122,-214
1,304663,-3477,-1686,-602,-138,-225,-100,370,122,-214
1,304669,-3477,-1686,-602,-138,-225,-100,370,122,-214
1,304674,-3477,-1686,-602,-138,-225,-100,370,122,-214
1,304680,-3477,-1686,-602,-138,-225,-100,370,122,-214
1,304686,-3479,-1682,-602,-138,-227,-89,370,122,-214
1,304691,-3479,-1682,-602,-138,-227,-89,370,122,-214
1,304696,-3479,-1682,-602,-138,-227,-89,370,122,-214
1,304702,-3479,-1682,-602,-138,-227,-89,370,122,-214
1,304708,-3478,-1684,-608,-139,-230,-94,370,122,-214
1,304713,-3478,-1684,-608,-139,-230,-94,370,122,-214
1,304718,-3478,-1684,-608,-139,-230,-94,370,122,-214
1,304723,-3478,-1689,-610,-139,-224,-92,370,122,-214
1,304729,-3478,-1689,-610,-139,-224,-92,370,122,-214
1,304735,-3478,-1689,-610,-139,-224,-92,370,122,-214
1,304740,-3478,-1689,-610,-139,-224,-92,370,122,-214
1,304746,-3478,-1686,-605,-131,-223,-106,370,122,-214
1,304751,-3478,-1686,-605,-131,-223,-106,370,122,-214
1,304756,-3478,-1686,-605,-131,-223,-106,370,122,-214
1,304762,-3478,-1686,-605,-131,-223,-106,370,122,-214
1,304768,-3478,-1683,-602,-133,-224,-96,365,125,-207
1,304774,-3478,-1683,-602,-133,-224,-96,365,125,-207
1,304779,-3478,-1683,-602,-133,-224,-96,365,125,-207
1,304784,-3474,-1685,-603,-133,-225,-94,365,125,-207
1,304790,-3474,-1685,-603,-133,-225,-94,365,125,-207
1,304795,-3474,-1685,-603,-133,-225,-94,365,125,-207
1,304800,-3474,-1685,-603,-133,-225,-94,365,125,-207
1,304806,-3474,-1685,-605,-134,-227,-94,365,125,-207
1,304812,-3474,-1685,-605,-134,-227,-94,365,125,-207
1,304818,-3474,-1685,-605,-134,-227,-94,365,125,-207
1,304823,-3474,-1685,-605,-134,-227,-94,365,125,-207
1,304828,-3475,-1686,-603,-141,-236,-97,365,125,-207
1,304834,-3475,-1686,-603,-141,-236,-97,365,125,-207
1,304839,-3475,-1686,-603,-141,-236,-97,365,125,-207
1,304844,-3477,-1688,-608,-135,-229,-89,365,125,-207
1,304849,-3477,-1688,-608,-135,-229,-89,365,125,-207
1,304856,-3477,-1688,-608,-135,-229,-89,365,125,-207
1,304862,-3477,-1688,-608,-135,-229,-89,365,125,-207
1,304867,-3476,-1687,-604,-132,-228,-93,365,125,-207
1,304872,-3476,-1687,-604,-132,-228,-93,365,125,-207
1,304878,-3476,-1687,-604,-132,-228,-93,365,125,-207
1,304883,-3476,-1687,-604,-132,-228,-93,365,125,-207
1,304888,-3476,-1683,-601,-138,-221,-96,366,126,-212
1,304894,-3476,-1683,-601,-138,-221,-96,366,126,-212
1,304900,-3476,-1683,-601,-138,-221,-96,366,126,-212
1,304905,-3478,-1686,-602,-141,-224,-98,366,126,-212
1,304910,-3478,-1686,-602,-141,-224,-98,366,126,-212
1,304915,-3478,-1686,-602,-141,-224,-98,366,126,-212
1,304920,-3478,-1686,-602,-141,-224,-98,366,126,-212
1,304926,-3476,-1684,-601,-141,-224,-88,366,126,-212
1,304931,-3476,-1684,-601,-141,-224,-88,366,126,-212
1,304936,-3476,-1684,-601,-141,-224,-88,366,126,-212
1,304945,-3474,-1687,-608,-135,-229,-98,366,126,-212
1,304950,-3474,-1687,-608,-135,-229,-98,366,126,-212
1,304955,-3474,-1687,-608,-135,-229,-98,366,126,-212
1,304961,-3474,-1687,-608,-135,-229,-98,366,126,-212
1,304966,-3479,-1686,-608,-139,-225,-91,366,126,-212
1,304971,-3479,-1686,-608,-139,-225,-91,366,126,-212
1,304977,-3479,-1686,-608,-139,-225,-91,366,126,-212
1,304983,-3479,-1686,-608,-139,-225,-91,366,126,-212
1,304989,-3476,-1685,-607,-137,-229,-96,366,126,-212
1,304994,-3476,-1685,-607,-137,-229,-96,366,126,-212
1,304999,-3476,-1685,-607,-137,-229,-96,366,126,-212
1,305005,-3474,-1686,-599,-135,-224,-94,355,125,-213
1,305010,-3474,-1686,-599,-135,-224,-94,355,125,-213
1,305015,-3474,-1686,-599,-135,-224,-94,355,125,-213
1,305020,-3474,-1686,-599,-135,-224,-94,355,125,-213
1,305027,-3476,-1683,-599,-139,-224,-98,355,125,-213
1,305033,-3476,-1683,-599,-139,-224,-98,355,125,-213
1,305038,-3476,-1683,-599,-139,-224,-98,355,125,-213
1,305043,-3476,-1683,-599,-139,-224,-98,355,125,-213
1,305049,-3476,-1684,-602,-138,-228,-99,355,125,-213
1,305054,-3476,-1684,-602,-138,-228,-99,355,125,-213
1,305059,-3476,-1684,-602,-138,-228,-99,355,125,-213
1,305064,-3475,-1683,-605,-129,-234,-95,355,125,-213
1,305070,-3475,-1683,-605,-129,-234,-95,355,125,-213
1,305075,-3475,-1683,-605,-129,-234,-95,355,125,-213
1,305080,-3475,-1683,-605,-129,-234,-95,355,125,-213
1,305085,-3478,-1683,-601,-126,-226,-94,355,125,-213
1,305090,-3478,-1683,-601,-126,-226,-94,355,125,-213
1,305096,-3478,-1683,-601,-126,-226,-94,355,125,-213
1,305101,-3478,-1683,-601,-126,-226,-94,355,125,-213
1,305106,-3477,-1685,-610,-135,-218,-97,355,125,-213
1,305113,-3477,-1685,-610,-135,-218,-97,355,125,-213
1,305118,-3477,-1685,-610,-135,-218,-97,355,125,-213
1,305124,-3477,-1685,-610,-135,-218,-97,355,125,-213
1,305129,-3477,-1685,-602,-143,-217,-98,371,121,-207
1,305134,-3477,-1685,-602,-143,-217,-98,371,121,-207
1,305140,-3477,-1685,-602,-143,-217,-98,371,121,-207
1,305145,-3475,-1684,-601,-136,-227,-97,371,121,-207
1,305150,-3475,-1684,-601,-136,-227,-97,371,121,-207
1,305157,-3475,-1684,-601,-136,-227,-97,371,121,-207
1,305162,-3475,-1684,-601,-136,-227,-97,371,121,-207
1,305168,-3475,-1684,-601,-136,-227,-97,371,121,-207
1,305173,-3475,-1684,-601,-136,-227,-97,371,121,-207
1,305179,-3475,-1684,-601,-136,-227,-97,371,121,-207
1,305184,-3477,-1686,-603,-139,-220,-100,371,121,-207
1,305189,-3477,-1686,-603,-139,-220,-100,371,121,-207
1,305195,-3477,-1686,-603,-139,-220,-100,371,121,-207
1,305201,-3477,-1686,-603,-139,-220,-100,371,121,-207
1,305206,-3476,-1686,-601,-142,-226,-97,371,121,-207
1,305211,-3476,-1686,-601,-142,-226,-97,371,121,-207
1,305217,-3476,-1686,-601,-142,-226,-97,371,121,-207
1,305222,-3476,-1686,-601,-142,-226,-97,371,121,-207
1,305228,-3477,-1685,-605,-132,-230,-99,371,121,-207
1,305234,-3477,-1685,-605,-132,-230,-99,371,121,-207
1,305240,-3477,-1685,-605,-132,-230,-99,371,121,-207
1,305246,-3474,-1687,-603,-134,-225,-93,371,121,-207
1,305251,-3474,-1687,-603,-134,-225,-93,371,121,-207
1,305257,-3474,-1687,-603,-134,-225,-93,371,121,-207
1,305263,-3474,-1687,-603,-134,-225,-93,371,121,-207
1,305268,-3474,-1687,-604,-130,-229,-97,373,121,-207
1,305274,-3474,-1687,-604,-130,-229,-97,373,121,-207
1,305280,-3474,-1687,-604,-130,-229,-97,373,121,-207
1,305285,-3479,-1684,-598,-136,-224,-100,373,121,-207
1,305290,-3479,-1684,-598,-136,-224,-100,373,121,-207
1,305295,-3479,-1684,-598,-136,-224,-100,373,121,-207
1,305301,-3479,-1684,-598,-136,-224,-100,373,121,-207
1,305306,-3475,-1688,-600,-140,-222,-95,373,121,-207
1,305312,-3475,-1688,-600,-140,-222,-95,373,121,-207
1,305318,-3475,-1688,-600,-140,-222,-95,373,121,-207
1,305324,-3475,-1688,-600,-140,-222,-95,373,121,-207
1,305330,-3476,-1686,-605,-136,-223,-94,373,121,-207
1,305335,-3476,-1686,-605,-136,-223,-94,373,121,-207
1,305341,-3476,-1686,-605,-136,-223,-94,373,121,-207
1,305345,-3476,-1681,-609,-136,-218,-92,373,121,-207
1,305351,-3476,-1681,-609,-136,-218,-92,373,121,-207
1,305356,-3476,-1681,-609,-136,-218,-92,373,121,-207
1,305362,-3476,-1681,-609,-136,-218,-92,373,121,-207
1,305368,-3476,-1685,-602,-146,-226,-95,373,121,-207
1,305374,-3476,-1685,-602,-146,-226,-95,373,121,-207
1,305379,-3476,-1685,-602,-146,-226,-95,373,121,-207
1,305385,-3476,-1685,-602,-137,-226,-96,362,128,-210
1,305391,-3476,-1685,-602,-137,-226,-96,362,128,-210
1,305396,-3476,-1685,-602,-137,-226,-96,362,128,-210
1,305402,-3476,-1685,-602,-137,-226,-96,362,128,-210
1,305408,-3478,-1683,-605,-136,-228,-97,362,128,-210
1,305414,-3478,-1683,-605,-136,-228,-97,362,128,-210
1,305419,-3478,-1683,-605,-136,-228,-97,362,128,-210
1,305425,-3474,-1684,-604,-141,-230,-88,362,128,-210
1,305431,-3474,-1684,-604,-141,-230,-88,362,128,-210
1,305436,-3474,-1684,-604,-141,-230,-88,362,128,-210
1,305441,-3474,-1684,-604,-141,-230,-88,362,128,-210
1,305446,-3477,-1685,-609,-138,-230,-90,362,128,-210
1,305453,-3477,-1685,-609,-138,-230,-90,362,128,-210
1,305459,-3477,-1685,-609,-138,-230,-90,362,128,-210
1,305465,-3477,-1684,-604,-136,-234,-92,362,128,-210
1,305470,-3477,-1684,-604,-136,-234,-92,362,128,-210
1,305477,-3477,-1684,-604,-136,-234,-92,362,128,-210
1,305482,-3477,-1684,-604,-136,-234,-92,362,128,-210
1,305487,-3482,-1686,-606,-136,-228,-99,362,128,-210
1,305492,-3482,-1686,-606,-136,-228,-99,362,128,-210
1,305499,-3482,-1686,-606,-136,-228,-99,362,128,-210
1,305504,-3482,-1686,-606,-136,-228,-99,362,128,-210
1,305510,-3475,-1685,-598,-134,-226,-90,361,129,-211
1,305514,-3475,-1685,-598,-134,-226,-90,361,129,-211
1,305520,-3475,-1685,-598,-134,-226,-90,361,129,-211
1,305526,-3475,-1685,-602,-125,-224,-92,361,129,-211
1,305531,-3475,-1685,-602,-125,-224,-92,361,129,-211
1,305537,-3475,-1685,-602,-125,-224,-92,361,129,-211
1,305543,-3475,-1685,-602,-125,-224,-92,361,129,-211
1,305548,-3477,-1685,-604,-131,-221,-93,361,129,-211
1,305554,-3477,-1685,-604,-131,-221,-93,361,129,-211
1,305558,-3477,-1685,-604,-131,-221,-93,361,129,-211
1,305564,-3477,-1685,-604,-131,-221,-93,361,129,-211
1,305569,-3476,-1689,-602,-130,-223,-93,361,129,-211
1,305574,-3476,-1689,-602,-130,-223,-93,361,129,-211
1,305581,-3476,-1689,-602,-130,-223,-93,361,129,-211
1,305586,-3477,-1684,-605,-140,-219,-87,361,129,-211
1,305592,-3477,-1684,-605,-140,-219,-87,361,129,-211
1,305598,-3477,-1684,-605,-140,-219,-87,361,129,-211
1,305603,-3477,-1684,-605,-140,-219,-87,361,129,-211
1,305608,-3478,-1685,-603,-144,-217,-89,361,129,-211
1,305613,-3478,-1685,-603,-144,-217,-89,361,129,-211
1,305619,-3478,-1685,-603,-144,-217,-89,361,129,-211
1,305625,-3477,-1682,-602,-136,-221,-98,363,119,-205
1,305631,-3477,-1682,-602,-136,-221,-98,363,119,-205
1,305636,-3477,-1682,-602,-136,-221,-98,363,119,-205
1,305641,-3477,-1682,-602,-136,-221,-98,363,119,-205
1,305646,-3476,-1681,-604,-131,-229,-91,363,119,-205
1,305652,-3476,-1681,-604,-131,-229,-91,363,119,-205
1,305657,-3476,-1681,-604,-131,-229,-91,363,119,-205
1,305664,-3476,-1681,-604,-131,-229,-91,363,119,-205
1,305669,-3476,-1681,-602,-134,-226,-90,363,119,-205
1,305674,-3476,-1681,-602,-134,-226,-90,363,119,-205
1,305680,-3476,-1681,-602,-134,-226,-90,363,119,-205
1,305685,-3474,-1684,-602,-132,-227,-94,363,119,-205
1,305690,-3474,-1684,-602,-132,-227,-94,363,119,-205
1,305695,-3474,-1684,-602,-132,-227,-94,363,119,-205
1,305700,-3474,-1684,-602,-132,-227,-94,363,119,-205
1,305707,-3476,-1683,-605,-133,-227,-85,363,119,-205
1,305712,-3476,-1683,-605,-133,-227,-85,363,119,-205
1,305718,-3476,-1683,-605,-133,-227,-85,363,119,-205
1,305724,-3476,-1683,-605,-133,-227,-85,363,119,-205
1,305729,-3479,-1687,-604,-138,-228,-97,363,119,-205
1,305734,-3479,-1687,-604,-138,-228,-97,363,119,-205
1,305740,-3479,-1687,-604,-138,-228,-97,363,119,-205
1,305745,-3474,-1685,-604,-138,-226,-94,370,124,-208
1,305751,-3474,-1685,-604,-138,-226,-94,370,124,-208
1,305756,-3474,-1685,-604,-138,-226,-94,370,124,-208
1,305761,-3474,-1685,-604,-138,-226,-94,370,124,-208
1,305767,-3476,-1687,-597,-135,-223,-95,370,124,-208
1,305771,-3476,-1687,-597,-135,-223,-95,370,124,-208
1,305777,-3476,-1687,-597,-135,-223,-95,370,124,-208
1,305783,-3476,-1687,-597,-135,-223,-95,370,124,-208
1,305788,-3476,-1685,-604,-134,-223,-92,370,124,-208
1,305795,-3476,-1685,-604,-134,-223,-92,370,124,-208
1,305801,-3476,-1685,-604,-134,-223,-92,370,124,-208
1,305806,-3478,-1686,-607,-130,-219,-89,370,124,-208
1,305811,-3478,-1686,-607,-130,-219,-89,370,124,-208
1,305817,-3478,-1686,-607,-130,-219,-89,370,124,-208
1,305823,-3478,-1686,-607,-130,-219,-89,370,124,-208
1,305828,-3476,-1683,-598,-136,-226,-99,370,124,-208
1,305833,-3476,-1683,-598,-136,-226,-99,370,124,-208
1,305839,-3476,-1683,-598,-136,-226,-99,370,124,-208
1,305845,-3478,-1685,-605,-138,-233,-93,370,124,-208
1,305851,-3478,-1685,-605,-138,-233,-93,370,124,-208
1,305856,-3478,-1685,-605,-138,-233,-93,370,124,-208
1,305862,-3478,-1685,-605,-138,-233,-93,370,124,-208
1,305867,-3477,-1683,-603,-140,-227,-92,363,125,-215
1,305872,-3477,-1683,-603,-140,-227,-92,363,125,-215
1,305879,-3477,-1683,-603,-140,-227,-92,363,125,-215
1,305884,-3477,-1683,-603,-140,-227,-92,363,125,-215
1,305889,-3478,-1686,-604,-137,-223,-89,363,125,-215
1,305895,-3478,-1686,-604,-137,-223,-89,363,125,-215
1,305900,-3478,-1686,-604,-137,-223,-89,363,125,-215
1,305905,-3473,-1685,-602,-138,-229,-89,363,125,-215
1,305911,-3473,-1685,-602,-138,-229,-89,363,125,-215
1,305916,-3473,-1685,-602,-138,-229,-89,363,125,-215
1,305923,-3473,-1685,-602,-138,-229,-89,363,125,-215
1,305928,-3475,-1686,-602,-140,-223,-92,363,125,-215
1,305933,-3475,-1686,-602,-140,-223,-92,363,125,-215
1,305938,-3475,-1686,-602,-140,-223,-92,363,125,-215
1,305944,-3475,-1686,-602,-140,-223,-92,363,125,-215
1,305949,-3475,-1686,-610,-134,-222,-96,363,125,-215
1,305955,-3475,-1686,-610,-134,-222,-96,363,125,-215
1,305959,-3475,-1686,-610,-134,-222,-96,363,125,-215
1,305966,-3477,-1685,-607,-134,-221,-84,363,125,-215
1,305971,-3477,-1685,-607,-134,-221,-84,363,125,-215
1,305976,-3477,-1685,-607,-134,-221,-84,363,125,-215
1,305981,-3477,-1685,-607,-134,-221,-84,363,125,-215
1,305986,-3478,-1683,-609,-134,-233,-87,363,125,-215
1,305992,-3478,-1683,-609,-134,-233,-87,363,125,-215
1,305998,-3478,-1683,-609,-134,-233,-87,363,125,-215
1,306003,-3478,-1683,-609,-134,-233,-87,363,125,-215
1,306009,-3478,-1687,-605,-134,-230,-92,365,123,-207
1,306015,-3478,-1687,-605,-134,-230,-92,365,123,-207
1,306020,-3478,-1687,-605,-134,-230,-92,365,123,-207
1,306025,-3476,-1684,-598,-142,-237,-95,365,123,-207
1,306031,-3476,-1684,-598,-142,-237,-95,365,123,-207
1,306037,-3476,-1684,-598,-142,-237,-95,365,123,-207
1,306042,-3476,-1684,-598,-142,-237,-95,365,123,-207
1,306049,-3476,-1686,-605,-134,-234,-88,365,123,-207
1,306054,-3476,-1686,-605,-134,-234,-88,365,123,-207
1,306060,-3476,-1686,-605,-134,-234,-88,365,123,-207
1,306065,-3476,-1686,-605,-134,-234,-88,365,123,-207
1,306070,-3476,-1686,-605,-134,-234,-88,365,123,-207
1,306076,-3476,-1686,-605,-134,-234,-88,365,123,-207
1,306081,-3476,-1686,-605,-134,-234,-88,365,123,-207
1,306086,-3474,-1683,-603,-134,-226,-95,365,123,-207
1,306093,-3474,-1683,-603,-134,-226,-95,365,123,-207
1,306098,-3474,-1683,-603,-134,-226,-95,365,123,-207
1,306103,-3474,-1683,-603,-134,-226,-95,365,123,-207
1,306109,-3477,-1684,-604,-136,-230,-92,365,123,-207
1,306114,-3477,-1684,-604,-136,-230,-92,365,123,-207
1,306119,-3477,-1684,-604,-136,-230,-92,365,123,-207
1,306125,-3474,-1688,-600,-139,-229,-89,368,130,-208
1,306130,-3474,-1688,-600,-139,-229,-89,368,130,-208
1,306137,-3474,-1688,-600,-139,-229,-89,368,130,-208
1,306142,-3474,-1688,-600,-139,-229,-89,368,130,-208
1,306148,-3475,-1683,-602,-139,-227,-87,368,130,-208
1,306153,-3475,-1683,-602,-139,-227,-87,368,130,-208
1,306159,-3475,-1683,-602,-139,-227,-87,368,130,-208
1,306165,-3476,-1683,-600,-141,-231,-93,368,130,-208
1,306170,-3476,-1683,-600,-141,-231,-93,368,130,-208
1,306176,-3476,-1683,-600,-141,-231,-93,368,130,-208
1,306182,-3476,-1683,-600,-141,-231,-93,368,130,-208
1,306187,-3475,-1687,-605,-133,-229,-97,368,130,-208
1,306192,-3475,-1687,-605,-133,-229,-97,368,130,-208
1,306198,-3475,-1687,-605,-133,-229,-97,368,130,-208
1,306203,-3475,-1687,-605,-133,-229,-97,368,130,-208
1,306209,-3476,-1684,-601,-135,-226,-96,368,130,-208
1,306214,-3476,-1684,-601,-135,-226,-96,368,130,-208
1,306220,-3476,-1684,-601,-135,-226,-96,368,130,-208
1,306226,-3477,-1686,-607,-133,-219,-98,368,130,-208
1,306231,-3477,-1686,-607,-133,-219,-98,368,130,-208
1,306236,-3477,-1686,-607,-133,-219,-98,368,130,-208
1,306242,-3477,-1686,-607,-133,-219,-98,368,130,-208
1,306247,-3480,-1685,-599,-132,-231,-94,376,116,-208
1,306252,-3480,-1685,-599,-132,-231,-94,376,116,-208
1,306258,-3480,-1685,-599,-132,-231,-94,376,116,-208
1,306264,-3480,-1685,-599,-132,-231,-94,376,116,-208
1,306269,-3476,-1683,-604,-138,-233,-101,376,116,-208
1,306275,-3476,-1683,-604,-138,-233,-101,376,116,-208
1,306280,-3476,-1683,-604,-138,-233,-101,376,116,-208
1,306285,-3474,-1682,-606,-137,-236,-92,376,116,-208
1,306291,-3474,-1682,-606,-137,-236,-92,376,116,-208
1,306296,-3474,-1682,-606,-137,-236,-92,376,116,-208
1,306301,-3474,-1682,-606,-137,-236,-92,376,116,-208
1,306307,-3480,-1684,-607,-134,-234,-97,376,116,-208
1,306313,-3480,-1684,-607,-134,-234,-97,376,116,-208
1,306319,-3480,-1684,-607,-134,-234,-97,376,116,-208
1,306324,-3480,-1684,-607,-134,-234,-97,376,116,-208
1,306329,-3476,-1686,-602,-136,-226,-98,376,116,-208
1,306334,-3476,-1686,-602,-136,-226,-98,376,116,-208
1,306340,-3476,-1686,-602,-136,-226,-98,376,116,-208
1,306345,-3478,-1683,-606,-135,-229,-94,376,116,-208
1,306351,-3478,-1683,-606,-135,-229,-94,376,116,-208
1,306357,-3478,-1683,-606,-135,-229,-94,376,116,-208
1,306363,-3478,-1683,-606,-135,-229,-94,376,116,-208
1,306368,-3477,-1685,-606,-140,-229,-90,360,130,-208
1,306373,-3477,-1685,-606,-140,-229,-90,360,130,-208
1,306378,-3477,-1685,-606,-140,-229,-90,360,130,-208
1,306384,-3477,-1685,-606,-140,-229,-90,360,130,-208
1,306390,-3475,-1686,-604,-130,-235,-87,360,130,-208
1,306396,-3475,-1686,-604,-130,-235,-87,360,130,-208
1,306401,-3475,-1686,-604,-130,-235,-87,360,130,-208
1,306406,-3478,-1683,-603,-128,-228,-94,360,130,-208
1,306412,-3478,-1683,-603,-128,-228,-94,360,130,-208
1,306417,-3478,-1683,-603,-128,-228,-94,360,130,-208
1,306422,-3478,-1683,-603,-128,-228,-94,360,130,-208
1,306428,-3477,-1684,-605,-130,-226,-92,360,130,-208
1,306434,-3477,-1684,-605,-130,-226,-92,360,130,-208
1,306439,-3477,-1684,-605,-130,-226,-92,360,130,-208
1,306444,-3477,-1684,-605,-130,-226,-92,360,130,-208
1,306449,-3476,-1686,-608,-136,-217,-96,360,130,-208
1,306454,-3476,-1686,-608,-136,-217,-96,360,130,-208
1,306460,-3476,-1686,-608,-136,-217,-96,360,130,-208
1,306465,-3477,-1684,-603,-136,-231,-101,360,130,-208
1,306470,-3477,-1684,-603,-136,-231,-101,360,130,-208
1,306476,-3477,-1684,-603,-136,-231,-101,360,130,-208
1,306482,-3477,-1684,-603,-136,-231,-101,360,130,-208
1,306487,-3475,-1682,-603,-131,-228,-96,361,125,-209
1,306492,-3475,-1682,-603,-131,-228,-96,361,125,-209
1,306497,-3475,-1682,-603,-131,-228,-96,361,125,-209
1,306503,-3475,-1682,-603,-131,-228,-96,361,125,-209
1,306508,-3476,-1683,-605,-137,-223,-92,361,125,-209
1,306513,-3476,-1683,-605,-137,-223,-92,361,125,-209
1,306520,-3476,-1683,-605,-137,-223,-92,361,125,-209
1,306525,-3476,-1683,-605,-137,-223,-92,361,125,-209
1,306530,-3474,-1686,-602,-138,-231,-91,361,125,-209
1,306536,-3474,-1686,-602,-138,-231,-91,361,125,-209
1,306541,-3474,-1686,-602,-138,-231,-91,361,125,-209
1,306547,-3477,-1684,-607,-140,-232,-100,361,125,-209
1,306552,-3477,-1684,-607,-140,-232,-100,361,125,-209
1,306558,-3477,-1684,-607,-140,-232,-100,361,125,-209
1,306564,-3477,-1684,-607,-140,-232,-100,361,125,-209
1,306569,-3476,-1684,-604,-137,-228,-98,361,125,-209
1,306574,-3476,-1684,-604,-137,-228,-98,361,125,-209
1,306580,-3476,-1684,-604,-137,-228,-98,361,125,-209
1,306585,-3479,-1685,-605,-131,-224,-91,361,125,-209
1,306590,-3479,-1685,-605,-131,-224,-91,361,125,-209
1,306596,-3479,-1685,-605,-131,-224,-91,361,125,-209
1,306601,-3479,-1685,-605,-131,-224,-91,361,125,-209
1,306607,-3479,-1685,-605,-131,-224,-91,366,128,-204
1,306612,-3479,-1685,-605,-131,-224,-91,366,128,-204
1,306618,-3479,-1685,-605,-131,-224,-91,366,128,-204
1,306622,-3479,-1685,-605,-131,-224,-91,366,128,-204
1,306628,-3477,-1683,-594,-134,-228,-95,366,128,-204
1,306633,-3477,-1683,-594,-134,-228,-95,366,128,-204
1,306638,-3477,-1683,-594,-134,-228,-95,366,128,-204
1,306644,-3477,-1683,-594,-134,-228,-95,366,128,-204
1,306650,-3477,-1684,-608,-135,-227,-100,366,128,-204
1,306656,-3477,-1684,-608,-135,-227,-100,366,128,-204
1,306661,-3477,-1684,-608,-135,-227,-100,366,128,-204
1,306666,-3477,-1684,-609,-139,-227,-87,366,128,-204
1,306671,-3477,-1684,-609,-139,-227,-87,366,128,-204
1,306676,-3477,-1684,-609,-139,-227,-87,366,128,-204
1,306682,-3477,-1684,-609,-139,-227,-87,366,128,-204
1,306689,-3478,-1685,-605,-135,-230,-87,366,128,-204
1,306694,-3478,-1685,-605,-135,-230,-87,366,128,-204
1,306699,-3478,-1685,-605,-135,-230,-87,366,128,-204
1,306705,-3478,-1685,-605,-135,-230,-87,366,128,-204
1,306710,-3474,-1683,-610,-138,-226,-91,366,128,-204
1,306715,-3474,-1683,-610,-138,-226,-91,366,128,-204
1,306721,-3474,-1683,-610,-138,-226,-91,366,128,-204
1,306726,-3476,-1685,-606,-135,-224,-96,366,128,-204
1,306733,-3476,-1685,-606,-135,-224,-96,366,128,-204
1,306738,-3476,-1685,-606,-135,-224,-96,366,128,-204
1,306743,-3476,-1685,-606,-135,-224,-96,366,128,-204
1,306749,-3476,-1688,-606,-135,-225,-98,368,134,-206
1,306754,-3476,-1688,-606,-135,-225,-98,368,134,-206
1,306760,-3476,-1688,-606,-135,-225,-98,368,134,-206
1,306766,-3478,-1685,-602,-134,-230,-91,368,134,-206
1,306771,-3478,-1685,-602,-134,-230,-91,368,134,-206
1,306778,-3478,-1685,-602,-134,-230,-91,368,134,-206
1,306783,-3478,-1685,-602,-134,-230,-91,368,134,-206
1,306789,-3478,-1689,-601,-140,-227,-90,368,134,-206
1,306794,-3478,-1689,-601,-140,-227,-90,368,134,-206
1,306799,-3478,-1689,-601,-140,-227,-90,368,134,-206
1,306804,-3478,-1689,-601,-140,-227,-90,368,134,-206
1,306810,-3478,-1689,-601,-140,-227,-90,368,134,-206
1,306816,-3478,-1689,-601,-140,-227,-90,368,134,-206
1,306821,-3478,-1689,-601,-140,-227,-90,368,134,-206
1,306827,-3474,-1686,-608,-136,-227,-96,368,134,-206
1,306832,-3474,-1686,-608,-136,-227,-96,368,134,-206
1,306837,-3474,-1686,-608,-136,-227,-96,368,134,-206
1,306842,-3474,-1686,-608,-136,-227,-96,368,134,-206
1,306848,-3479,-1684,-607,-138,-232,-96,368,134,-206
1,306853,-3479,-1684,-607,-138,-232,-96,368,134,-206
1,306860,-3479,-1684,-607,-138,-232,-96,368,134,-206
1,306867,-3479,-1683,-602,-142,-227,-96,357,127,-205
1,306874,-3479,-1683,-602,-142,-227,-96,357,127,-205
1,306880,-3479,-1683,-602,-142,-227,-96,357,127,-205
1,306886,-3479,-1685,-605,-144,-226,-96,357,127,-205
1,306891,-3479,-1685,-605,-144,-226,-96,357,127,-205
1,306896,-3479,-1685,-605,-144,-226,-96,357,127,-205
1,306903,-3479,-1685,-605,-144,-226,-96,357,127,-205
1,306908,-3475,-1685,-607,-142,-224,-96,357,127,-205
1,306914,-3475,-1685,-607,-142,-224,-96,357,127,-205
1,306919,-3475,-1685,-607,-142,-224,-96,357,127,-205
1,306925,-3475,-1685,-607,-142,-224,-96,357,127,-205
1,306930,-3476,-1687,-609,-141,-223,-97,357,127,-205
1,306935,-3476,-1687,-609,-141,-223,-97,357,127,-205
1,306940,-3476,-1687,-609,-141,-223,-97,357,127,-205
1,306946,-3477,-1686,-606,-128,-224,-98,357,127,-205
1,306951,-3477,-1686,-606,-128,-224,-98,357,127,-205
1,306956,-3477,-1686,-606,-128,-224,-98,357,127,-205
1,306962,-3477,-1686,-606,-128,-224,-98,357,127,-205
1,306968,-3478,-1681,-604,-137,-226,-94,357,127,-205
1,306973,-3478,-1681,-604,-137,-226,-94,357,127,-205
1,306979,-3478,-1681,-604,-137,-226,-94,357,127,-205
1,306984,-3478,-1681,-604,-137,-226,-94,357,127,-205
1,306991,-3474,-1686,-607,-138,-227,-89,370,122,-206
1,306996,-3474,-1686,-607,-138,-227,-89,370,122,-206
1,307002,-3474,-1686,-607,-138,-227,-89,370,122,-206
1,307007,-3477,-1686,-606,-136,-230,-89,370,122,-206
1,307012,-3477,-1686,-606,-136,-230,-89,370,122,-206
1,307017,-3477,-1686,-606,-136,-230,-89,370,122,-206
1,307022,-3477,-1686,-606,-136,-230,-89,370,122,-206
1,307028,-3476,-1686,-602,-143,-231,-101,370,122,-206
1,307034,-3476,-1686,-602,-143,-231,-101,370,122,-206
1,307039,-3476,-1686,-602,-143,-231,-101,370,122,-206
1,307044,-3476,-1686,-602,-143,-231,-101,370,122,-206
1,307049,-3475,-1685,-602,-140,-230,-96,370,122,-206
1,307054,-3475,-1685,-602,-140,-230,-96,370,122,-206
1,307059,-3475,-1685,-602,-140,-230,-96,370,122,-206
1,307065,-3475,-1685,-602,-140,-230,-96,370,122,-206
1,307070,-3476,-1685,-605,-142,-226,-101,370,122,-206
1,307076,-3476,-1685,-605,-142,-226,-101,370,122,-206
1,307082,-3476,-1685,-605,-142,-226,-101,370,122,-206
1,307087,-3475,-1683,-599,-145,-228,-100,370,122,-206
1,307093,-3475,-1683,-599,-145,-228,-100,370,122,-206
1,307098,-3475,-1683,-599,-145,-228,-100,370,122,-206
1,307104,-3475,-1683,-599,-145,-228,-100,370,122,-206
1,307109,-3472,-1684,-602,-136,-226,-91,369,119,-201
1,307116,-3472,-1684,-602,-136,-226,-91,369,119,-201
1,307121,-3472,-1684,-602,-136,-226,-91,369,119,-201
1,307126,-3478,-1685,-602,-143,-228,-96,369,119,-201
1,307132,-3478,-1685,-602,-143,-228,-96,369,119,-201
1,307137,-3478,-1685,-602,-143,-228,-96,369,119,-201
1,307142,-3478,-1685,-602,-143,-228,-96,369,119,-201
1,307148,-3475,-1684,-608,-133,-229,-101,369,119,-201
1,307153,-3475,-1684,-608,-133,-229,-101,369,119,-201
1,307159,-3475,-1684,-608,-133,-229,-101,369,119,-201
1,307164,-3475,-1684,-608,-133,-229,-101,369,119,-201
1,307170,-3477,-1684,-610,-134,-230,-94,369,119,-201
1,307175,-3477,-1684,-610,-134,-230,-94,369,119,-201
1,307182,-3477,-1684,-610,-134,-230,-94,369,119,-201
1,307187,-3477,-1685,-612,-134,-230,-97,369,119,-201
1,307192,-3477,-1685,-612,-134,-230,-97,369,119,-201
1,307198,-3477,-1685,-612,-134,-230,-97,369,119,-201
1,307204,-3477,-1685,-612,-134,-230,-97,369,119,-201
1,307209,-3478,-1685,-606,-136,-221,-89,369,119,-201
1,307214,-3478,-1685,-606,-136,-221,-89,369,119,-201
1,307219,-3478,-1685,-606,-136,-221,-89,369,119,-201
1,307224,-3478,-1685,-606,-136,-221,-89,369,119,-201
1,307229,-3476,-1682,-600,-137,-221,-95,366,122,-212
1,307234,-3476,-1682,-600,-137,-221,-95,366,122,-212
1,307240,-3476,-1682,-600,-137,-221,-95,366,122,-212
1,307246,-3476,-1682,-600,-137,-221,-95,366,122,-212
1,307252,-3478,-1685,-603,-130,-224,-93,366,122,-212
1,307257,-3478,-1685,-603,-130,-224,-93,366,122,-212
1,307262,-3478,-1685,-603,-130,-224,-93,366,122,-212
1,307268,-3475,-1686,-605,-140,-226,-89,366,122,-212
1,307273,-3475,-1686,-605,-140,-226,-89,366,122,-212
1,307279,-3475,-1686,-605,-140,-226,-89,366,122,-212
1,307284,-3475,-1686,-605,-140,-226,-89,366,122,-212
1,307290,-3476,-1689,-603,-141,-228,-93,366,122,-212
1,307296,-3476,-1689,-603,-141,-228,-93,366,122,-212
1,307301,-3476,-1689,-603,-141,-228,-93,366,122,-212
1,307306,-3480,-1681,-604,-140,-226,-98,366,122,-212
1,307311,-3480,-1681,-604,-140,-226,-98,366,122,-212
1,307316,-3480,-1681,-604,-140,-226,-98,366,122,-212
1,307322,-3480,-1681,-604,-140,-226,-98,366,122,-212
1,307329,-3480,-1686,-604,-141,-224,-97,366,122,-212
1,307334,-3480,-1686,-604,-141,-224,-97,366,122,-212
1,307340,-3480,-1686,-604,-141,-224,-97,366,122,-212
1,307345,-3480,-1686,-604,-141,-224,-97,366,122,-212
1,307350,-3475,-1688,-599,-135,-221,-98,362,134,-204
1,307355,-3475,-1688,-599,-135,-221,-98,362,134,-204
1,307361,-3475,-1688,-599,-135,-221,-98,362,134,-204
1,307366,-3475,-1688,-599,-135,-221,-98,362,134,-204
1,307372,-3477,-1686,-600,-137,-226,-99,362,134,-204
1,307377,-3477,-1686,-600,-137,-226,-99,362,134,-204
1,307382,-3477,-1686,-600,-137,-226,-99,362,134,-204
1,307388,-3476,-1687,-603,-134,-230,-90,362,134,-204
1,307393,-3476,-1687,-603,-134,-230,-90,362,134,-204
1,307398,-3476,-1687,-603,-134,-230,-90,362,134,-204
1,307404,-3476,-1687,-603,-134,-230,-90,362,134,-204
1,307409,-3475,-1683,-607,-130,-222,-99,362,134,-204
1,307415,-3475,-1683,-607,-130,-222,-99,362,134,-204
1,307421,-3475,-1683,-607,-130,-222,-99,362,134,-204
1,307426,-3475,-1683,-607,-130,-222,-99,362,134,-204
1,307432,-3479,-1683,-608,-130,-226,-103,362,134,-204
1,307437,-3479,-1683,-608,-130,-226,-103,362,134,-204
1,307443,-3479,-1683,-608,-130,-226,-103,362,134,-204
1,307448,-3475,-1688,-603,-139,-222,-96,362,134,-204
1,307454,-3475,-1688,-603,-139,-222,-96,362,134,-204
1,307460,-3475,-1688,-603,-139,-222,-96,362,134,-204
1,307465,-3475,-1688,-603,-139,-222,-96,362,134,-204
1,307472,-3477,-1684,-605,-136,-223,-97,362,134,-204
1,307477,-3477,-1684,-605,-136,-223,-97,362,134,-204
1,307484,-3477,-1684,-605,-136,-223,-97,362,134,-204
1,307489,-3477,-1689,-601,-130,-217,-92,372,122,-204
1,307494,-3477,-1689,-601,-130,-217,-92,372,122,-204
1,307502,-3477,-1689,-601,-130,-217,-92,372,122,-204
1,307529,-3478,-1689,-603,-138,-226,-91,372,122,-204
1,307542,-3478,-1689,-603,-138,-226,-91,372,122,-204
1,307547,-3478,-1683,-607,-137,-222,-101,372,122,-204
1,307565,-3478,-1683,-607,-137,-222,-101,372,122,-204
1,307582,-3477,-1684,-601,-134,-226,-102,372,122,-204
1,307588,-3475,-1686,-605,-140,-224,-93,372,122,-204
1,307594,-3475,-1686,-605,-140,-224,-93,372,122,-204
1,307598,-3475,-1686,-605,-140,-224,-93,372,122,-204
1,307603,-3475,-1686,-605,-140,-224,-93,372,122,-204
1,307608,-3477,-1686,-601,-142,-233,-98,371,125,-207
1,307613,-3477,-1686,-601,-142,-233,-98,371,125,-207
1,307618,-3477,-1686,-601,-142,-233,-98,371,125,-207
1,307623,-3477,-1686,-601,-142,-233,-98,371,125,-207
1,307628,-3475,-1684,-605,-137,-228,-93,371,125,-207
1,307633,-3475,-1684,-605,-137,-228,-93,371,125,-207
1,307638,-3475,-1684,-605,-137,-228,-93,371,125,-207
1,307643,-3475,-1684,-605,-137,-228,-93,371,125,-207
1,307647,-3479,-1685,-604,-139,-226,-95,371,125,-207
1,307652,-3479,-1685,-604,-139,-226,-95,371,125,-207
1,307657,-3479,-1685,-604,-139,-226,-95,371,125,-207
1,307662,-3479,-1685,-604,-139,-226,-95,371,125,-207
1,307666,-3476,-1684,-602,-139,-226,-99,371,125,-207
1,307672,-3476,-1684,-602,-139,-226,-99,371,125,-207
1,307676,-3476,-1684,-602,-139,-226,-99,371,125,-207
1,307681,-3476,-1684,-602,-139,-226,-99,371,125,-207
1,307685,-3476,-1684,-602,-139,-226,-99,371,125,-207
1,307690,-3477,-1684,-602,-140,-224,-95,371,125,-207
1,307694,-3477,-1684,-602,-140,-224,-95,371,125,-207
1,307699,-3477,-1684,-602,-140,-224,-95,371,125,-207
1,307703,-3477,-1684,-602,-140,-224,-95,371,125,-207
1,307708,-3479,-1685,-602,-138,-233,-95,371,125,-207
1,307714,-3479,-1685,-602,-138,-233,-95,371,125,-207
1,307718,-3479,-1685,-602,-138,-233,-95,371,125,-207
1,307722,-3479,-1685,-602,-138,-233,-95,371,125,-207
1,307727,-3478,-1684,-600,-133,-230,-95,361,129,-207
1,307733,-3478,-1684,-600,-133,-230,-95,361,129,-207
1,307737,-3478,-1684,-600,-133,-230,-95,361,129,-207
1,307742,-3478,-1684,-600,-133,-230,-95,361,129,-207
1,307747,-3478,-1687,-600,-133,-227,-97,361,129,-207
1,307752,-3478,-1687,-600,-133,-227,-97,361,129,-207
1,307758,-3478,-1687,-600,-133,-227,-97,361,129,-207
1,307762,-3478,-1687,-600,-133,-227,-97,361,129,-207
1,307767,-3476,-1686,-602,-132,-229,-96,361,129,-207
1,307772,-3476,-1686,-602,-132,-229,-96,361,129,-207
1,307777,-3476,-1686,-602,-132,-229,-96,361,129,-207
1,307782,-3476,-1686,-602,-132,-229,-96,361,129,-207
1,307787,-3477,-1683,-603,-136,-221,-100,361,129,-207
1,307792,-3477,-1683,-603,-136,-221,-100,361,129,-207
1,307796,-3477,-1683,-603,-136,-221,-100,361,129,-207
1,307802,-3477,-1683,-603,-136,-221,-100,361,129,-207
1,307806,-3477,-1683,-603,-136,-221,-100,361,129,-207
1,307811,-3476,-1683,-599,-144,-228,-98,361,129,-207
1,307816,-3476,-1683,-599,-144,-228,-98,361,129,-207
1,307821,-3476,-1683,-599,-144,-228,-98,361,129,-207
1,307826,-3475,-1685,-598,-141,-227,-98,361,129,-207
1,307831,-3475,-1685,-598,-141,-227,-98,361,129,-207
1,307836,-3475,-1685,-598,-141,-227,-98,361,129,-207
1,307842,-3475,-1685,-598,-141,-227,-98,361,129,-207
1,307847,-3474,-1680,-606,-140,-228,-95,361,129,-207
1,307852,-3474,-1680,-606,-140,-228,-95,372,122,-208
1,307857,-3474,-1680,-606,-140,-228,-95,372,122,-208
1,307862,-3474,-1680,-606,-140,-228,-95,372,122,-208
1,307867,-3478,-1683,-603,-143,-227,-88,372,122,-208
1,307872,-3478,-1683,-603,-143,-227,-88,372,122,-208
1,307878,-3478,-1683,-603,-143,-227,-88,372,122,-208
1,307884,-3478,-1683,-603,-143,-227,-88,372,122,-208
1,307890,-3478,-1687,-604,-142,-230,-89,372,122,-208
1,307895,-3478,-1687,-604,-142,-230,-89,372,122,-208
1,307900,-3478,-1687,-604,-142,-230,-89,372,122,-208
1,307905,-3478,-1687,-604,-142,-230,-89,372,122,-208
1,307911,-3477,-1685,-603,-141,-222,-98,372,122,-208
1,307916,-3477,-1685,-603,-141,-222,-98,372,122,-208
1,307922,-3477,-1685,-603,-141,-222,-98,372,122,-208
1,307929,-3475,-1687,-607,-139,-223,-95,372,122,-208
1,307934,-3475,-1687,-607,-139,-223,-95,372,122,-208
1,307939,-3475,-1687,-607,-139,-223,-95,372,122,-208
1,307945,-3475,-1687,-607,-139,-223,-95,372,122,-208
1,307951,-3477,-1683,-602,-141,-225,-97,372,122,-208
1,307957,-3477,-1683,-602,-141,-225,-97,372,122,-208
1,307962,-3477,-1683,-602,-141,-225,-97,372,122,-208
1,307969,-3478,-1682,-606,-144,-228,-99,361,123,-203
1,307975,-3478,-1682,-606,-144,-228,-99,361,123,-203
1,307981,-3478,-1682,-606,-144,-228,-99,361,123,-203
