imu,time,ax,ay,az,gx,gy,gz,mx,my,mz
1,103329,-3464,354,1486,-135,-216,-86,74,146,112
1,103339,-3464,354,1486,-135,-216,-86,74,146,112
1,103347,-3467,352,1490,-138,-213,-91,74,146,112
1,103356,-3467,352,1490,-138,-213,-91,74,146,112
1,103365,-3466,351,1490,-135,-212,-88,74,146,112
1,103373,-3466,351,1490,-135,-212,-88,74,146,112
1,103380,-3464,355,1483,-135,-213,-97,74,146,112
1,103389,-3464,355,1483,-135,-213,-97,74,146,112
1,103396,-3464,355,1483,-135,-213,-97,74,146,112
1,103403,-3464,355,1483,-135,-213,-97,74,146,112
1,103409,-3464,355,1483,-135,-213,-97,74,146,112
1,103416,-3464,355,1483,-135,-213,-97,74,146,112
1,103422,-3464,351,1483,-142,-212,-97,74,146,112
1,103428,-3464,351,1483,-142,-212,-97,74,146,112
1,103434,-3464,351,1483,-142,-212,-97,74,146,112
1,103441,-3463,354,1485,-134,-210,-97,74,146,112
1,103446,-3463,354,1485,-134,-210,-97,72,144,120
1,103452,-3463,354,1485,-134,-210,-97,72,144,120
1,103458,-3463,354,1485,-134,-210,-97,72,144,120
1,103464,-3465,354,1485,-136,-210,-93,72,144,120
1,103471,-3465,354,1485,-136,-210,-93,72,144,120
1,103478,-3465,354,1485,-136,-210,-93,72,144,120
1,103484,-3461,352,1485,-137,-217,-94,72,144,120
1,103490,-3461,352,1485,-137,-217,-94,72,144,120
1,103496,-3461,352,1485,-137,-217,-94,72,144,120
1,103502,-3464,350,1481,-139,-215,-96,72,144,120
1,103508,-3464,350,1481,-139,-215,-96,72,144,120
1,103516,-3464,350,1481,-139,-215,-96,72,144,120
1,103522,-3464,353,1479,-137,-213,-90,72,144,120
1,103528,-3464,353,1479,-137,-213,-90,72,144,120
1,103534,-3464,353,1479,-137,-213,-90,72,144,120
1,103539,-3464,353,1479,-137,-213,-90,72,144,120
1,103547,-3465,352,1479,-139,-217,-89,72,144,120
1,103553,-3465,352,1479,-139,-217,-89,72,144,120
1,103558,-3465,352,1479,-139,-217,-89,72,144,120
1,103564,-3465,354,1485,-134,-216,-84,75,155,123
1,103569,-3465,354,1485,-134,-216,-84,75,155,123
1,103575,-3465,354,1485,-134,-216,-84,75,155,123
1,103580,-3465,354,1485,-134,-216,-84,75,155,123
1,103586,-3464,355,1484,-142,-218,-88,75,155,123
1,103591,-3464,355,1484,-142,-218,-88,75,155,123
1,103598,-3464,355,1484,-142,-218,-88,75,155,123
1,103603,-3466,356,1483,-139,-216,-98,75,155,123
1,103609,-3466,356,1483,-139,-216,-98,75,155,123
1,103615,-3466,356,1483,-139,-216,-98,75,155,123
1,103620,-3466,356,1483,-139,-216,-98,75,155,123
1,103627,-3467,354,1486,-140,-218,-90,75,155,123
1,103632,-3467,354,1486,-140,-218,-90,75,155,123
1,103639,-3467,354,1486,-140,-218,-90,75,155,123
1,103644,-3465,351,1481,-136,-212,-93,75,155,123
1,103650,-3465,351,1481,-136,-212,-93,75,155,123
1,103656,-3465,351,1481,-136,-212,-93,75,155,123
1,103662,-3463,353,1481,-136,-216,-92,75,155,123
1,103668,-3463,353,1481,-136,-216,-92,75,155,123
1,103674,-3463,353,1481,-136,-216,-92,75,155,123
1,103680,-3463,353,1481,-136,-216,-92,75,155,123
1,103686,-3465,353,1484,-142,-219,-97,75,155,123
1,103691,-3465,353,1484,-142,-219,-97,75,155,123
1,103696,-3465,353,1484,-142,-219,-97,75,155,123
1,103701,-3465,353,1484,-142,-219,-97,75,155,123
1,103708,-3465,356,1484,-142,-220,-93,70,148,114
1,103715,-3465,356,1484,-142,-220,-93,70,148,114
1,103724,-3465,355,1485,-144,-223,-94,70,148,114
1,103731,-3465,355,1485,-144,-223,-94,70,148,114
1,103738,-3465,355,1485,-144,-223,-94,70,148,114
1,103744,-3463,355,1482,-137,-223,-96,70,148,114
1,103749,-3463,355,1482,-137,-223,-96,70,148,114
1,103754,-3463,355,1482,-137,-223,-96,70,148,114
1,103760,-3463,355,1482,-137,-223,-96,70,148,114
1,103766,-3463,355,1480,-137,-221,-93,70,148,114
1,103771,-3463,355,1480,-137,-221,-93,70,148,114
1,103777,-3463,355,1480,-137,-221,-93,70,148,114
1,103782,-3465,354,1485,-139,-224,-91,70,148,114
1,103788,-3465,354,1485,-139,-224,-91,70,148,114
1,103793,-3465,354,1485,-139,-224,-91,70,148,114
1,103799,-3465,354,1485,-139,-224,-91,70,148,114
1,103805,-3464,353,1484,-144,-218,-87,70,148,114
1,103811,-3464,353,1484,-144,-218,-87,70,148,114
1,103816,-3464,353,1484,-144,-218,-87,70,148,114
1,103821,-3466,355,1486,-135,-215,-92,70,148,114
1,103827,-3466,355,1486,-135,-215,-92,78,156,114
1,103833,-3466,355,1486,-135,-215,-92,78,156,114
1,103838,-3466,355,1486,-135,-215,-92,78,156,114
1,103844,-3466,354,1482,-138,-218,-91,78,156,114
1,103849,-3466,354,1482,-138,-218,-91,78,156,114
1,103856,-3466,354,1482,-138,-218,-91,78,156,114
1,103861,-3466,354,1482,-138,-218,-91,78,156,114
1,103866,-3466,354,1482,-138,-218,-91,78,156,114
1,103872,-3466,354,1482,-138,-218,-91,78,156,114
1,103877,-3466,354,1482,-138,-218,-91,78,156,114
1,103884,-3461,353,1485,-141,-219,-91,78,156,114
1,103889,-3461,353,1485,-141,-219,-91,78,156,114
1,103895,-3461,353,1485,-141,-219,-91,78,156,114
1,103901,-3461,353,1485,-141,-219,-91,78,156,114
1,103907,-3462,351,1482,-143,-221,-90,78,156,114
1,103912,-3462,351,1482,-143,-221,-90,78,156,114
1,103918,-3462,351,1482,-143,-221,-90,78,156,114
1,103923,-3466,352,1480,-142,-218,-81,78,156,114
1,103929,-3466,352,1480,-142,-218,-81,78,156,114
1,103934,-3466,352,1480,-142,-218,-81,78,156,114
1,103941,-3466,352,1480,-142,-218,-81,78,156,114
1,103947,-3466,351,1485,-139,-223,-96,67,147,115
1,103952,-3466,351,1485,-139,-223,-96,67,147,115
1,103958,-3466,351,1485,-139,-223,-96,67,147,115
1,103963,-3463,353,1482,-140,-218,-92,67,147,115
1,103970,-3463,353,1482,-140,-218,-92,67,147,115
1,103975,-3463,353,1482,-140,-218,-92,67,147,115
1,103982,-3465,354,1482,-138,-223,-86,67,147,115
1,103987,-3465,354,1482,-138,-223,-86,67,147,115
1,103992,-3465,354,1482,-138,-223,-86,67,147,115
1,103998,-3465,354,1482,-138,-223,-86,67,147,115
1,104002,-3462,352,1482,-141,-214,-85,67,147,115
1,104007,-3462,352,1482,-141,-214,-85,67,147,115
1,104012,-3462,352,1482,-141,-214,-85,67,147,115
1,104017,-3462,352,1482,-141,-214,-85,67,147,115
1,104023,-3462,354,1484,-143,-211,-88,67,147,115
1,104029,-3462,354,1484,-143,-211,-88,67,147,115
1,104034,-3462,354,1484,-143,-211,-88,67,147,115
1,104039,-3462,354,1484,-143,-211,-88,67,147,115
1,104044,-3467,353,1481,-140,-223,-85,67,147,115
1,104048,-3467,353,1481,-140,-223,-85,67,147,115
1,104054,-3467,353,1481,-140,-223,-85,67,147,115
1,104059,-3467,353,1481,-140,-223,-85,67,147,115
1,104065,-3464,352,1486,-136,-213,-78,68,146,118
1,104071,-3464,352,1486,-136,-213,-78,68,146,118
1,104076,-3464,352,1486,-136,-213,-78,68,146,118
1,104082,-3464,353,1483,-141,-209,-94,68,146,118
1,104088,-3464,353,1483,-141,-209,-94,68,146,118
1,104093,-3464,353,1483,-141,-209,-94,68,146,118
1,104099,-3464,353,1483,-141,-209,-94,68,146,118
1,104105,-3465,353,1482,-146,-215,-102,68,146,118
1,104112,-3465,353,1482,-146,-215,-102,68,146,118
1,104118,-3465,353,1482,-146,-215,-102,68,146,118
1,104124,-3465,351,1483,-140,-217,-92,68,146,118
1,104129,-3465,351,1483,-140,-217,-92,68,146,118
1,104134,-3465,351,1483,-140,-217,-92,68,146,118
1,104140,-3465,351,1483,-140,-217,-92,68,146,118
1,104147,-3463,352,1477,-140,-215,-91,68,146,118
1,104154,-3463,352,1477,-140,-215,-91,68,146,118
1,104159,-3463,352,1477,-140,-215,-91,68,146,118
1,104165,-3460,356,1481,-139,-225,-82,68,146,118
1,104171,-3460,356,1481,-139,-225,-82,68,146,118
1,104177,-3460,356,1481,-139,-225,-82,68,146,118
1,104182,-3463,356,1488,-147,-221,-83,73,153,109
1,104188,-3463,356,1488,-147,-221,-83,73,153,109
1,104194,-3463,356,1488,-147,-221,-83,73,153,109
1,104200,-3463,356,1488,-147,-221,-83,73,153,109
1,104205,-3464,352,1491,-145,-225,-91,73,153,109
1,104211,-3464,352,1491,-145,-225,-91,73,153,109
1,104216,-3464,352,1491,-145,-225,-91,73,153,109
1,104221,-3464,352,1491,-145,-225,-91,73,153,109
1,104226,-3465,351,1483,-140,-220,-86,73,153,109
1,104232,-3465,351,1483,-140,-220,-86,73,153,109
1,104240,-3465,351,1483,-140,-220,-86,73,153,109
1,104245,-3465,351,1483,-140,-220,-86,73,153,109
1,104251,-3465,351,1483,-140,-220,-86,73,153,109
1,104257,-3465,351,1483,-140,-220,-86,73,153,109
1,104262,-3465,353,1485,-134,-222,-85,73,153,109
1,104267,-3465,353,1485,-134,-222,-85,73,153,109
1,104274,-3465,353,1485,-134,-222,-85,73,153,109
1,104280,-3465,353,1485,-134,-222,-85,73,153,109
1,104286,-3463,350,1484,-131,-213,-92,73,153,109
1,104292,-3463,350,1484,-131,-213,-92,73,153,109
1,104298,-3463,350,1484,-131,-213,-92,73,153,109
1,104303,-3465,351,1476,-135,-216,-92,73,153,109
1,104310,-3465,351,1476,-135,-216,-92,73,153,109
1,104315,-3465,351,1476,-135,-216,-92,73,153,109
1,104321,-3465,351,1476,-135,-216,-92,73,153,109
1,104327,-3465,352,1489,-136,-221,-91,77,147,111
1,104332,-3465,352,1489,-136,-221,-91,77,147,111
1,104339,-3465,352,1489,-136,-221,-91,77,147,111
1,104344,-3462,351,1486,-138,-221,-92,77,147,111
1,104349,-3462,351,1486,-138,-221,-92,77,147,111
1,104355,-3462,351,1486,-138,-221,-92,77,147,111
1,104360,-3462,351,1486,-138,-221,-92,77,147,111
1,104366,-3462,353,1481,-132,-221,-88,77,147,111
1,104371,-3462,353,1481,-132,-221,-88,77,147,111
1,104376,-3462,353,1481,-132,-221,-88,77,147,111
1,104381,-3462,353,1481,-132,-221,-88,77,147,111
1,104385,-3466,355,1484,-143,-223,-90,77,147,111
1,104391,-3466,355,1484,-143,-223,-90,77,147,111
1,104395,-3466,355,1484,-143,-223,-90,77,147,111
1,104400,-3466,355,1484,-143,-223,-90,77,147,111
1,104406,-3467,353,1487,-142,-215,-94,77,147,111
1,104411,-3467,353,1487,-142,-215,-94,77,147,111
1,104416,-3467,353,1487,-142,-215,-94,77,147,111
1,104421,-3467,353,1487,-142,-215,-94,77,147,111
1,104426,-3464,355,1484,-141,-212,-91,77,147,111
1,104430,-3464,355,1484,-141,-212,-91,77,147,111
1,104435,-3464,355,1484,-141,-212,-91,77,147,111
1,104440,-3464,355,1484,-141,-212,-91,77,147,111
1,104445,-3464,354,1485,-141,-221,-96,77,155,119
1,104451,-3464,354,1485,-141,-221,-96,77,155,119
1,104456,-3464,354,1485,-141,-221,-96,77,155,119
1,104462,-3465,354,1485,-138,-216,-89,77,155,119
1,104467,-3465,354,1485,-138,-216,-89,77,155,119
1,104472,-3465,354,1485,-138,-216,-89,77,155,119
1,104477,-3465,354,1485,-138,-216,-89,77,155,119
1,104482,-3464,351,1484,-139,-221,-84,77,155,119
1,104487,-3464,351,1484,-139,-221,-84,77,155,119
1,104494,-3464,351,1484,-139,-221,-84,77,155,119
1,104499,-3464,351,1484,-139,-221,-84,77,155,119
1,104506,-3462,349,1482,-143,-213,-96,77,155,119
1,104513,-3462,349,1482,-143,-213,-96,77,155,119
1,104520,-3462,349,1482,-143,-213,-96,77,155,119
1,104526,-3462,354,1485,-145,-210,-95,77,155,119
1,104532,-3462,354,1485,-145,-210,-95,77,155,119
1,104540,-3462,354,1485,-145,-210,-95,77,155,119
1,104546,-3462,356,1482,-142,-213,-89,77,155,119
1,104552,-3462,356,1482,-142,-213,-89,77,155,119
1,104557,-3462,356,1482,-142,-213,-89,77,155,119
1,104564,-3464,355,1484,-142,-208,-85,85,147,111
1,104569,-3464,355,1484,-142,-208,-85,85,147,111
1,104577,-3464,355,1484,-142,-208,-85,85,147,111
1,104583,-3466,350,1487,-141,-221,-89,85,147,111
1,104589,-3466,350,1487,-141,-221,-89,85,147,111
1,104595,-3466,350,1487,-141,-221,-89,85,147,111
1,104601,-3466,350,1487,-141,-221,-89,85,147,111
1,104606,-3463,351,1486,-137,-218,-88,85,147,111
1,104611,-3463,351,1486,-137,-218,-88,85,147,111
1,104619,-3463,351,1486,-137,-218,-88,85,147,111
1,104624,-3464,353,1483,-139,-223,-96,85,147,111
1,104629,-3464,353,1483,-139,-223,-96,85,147,111
1,104635,-3464,353,1483,-139,-223,-96,85,147,111
1,104640,-3464,353,1483,-139,-223,-96,85,147,111
1,104645,-3465,353,1479,-132,-217,-96,85,147,111
1,104651,-3465,353,1479,-132,-217,-96,85,147,111
1,104656,-3465,353,1479,-132,-217,-96,85,147,111
1,104663,-3464,350,1478,-132,-210,-86,85,147,111
1,104668,-3464,350,1478,-132,-210,-86,85,147,111
1,104674,-3464,350,1478,-132,-210,-86,85,147,111
1,104679,-3464,350,1478,-132,-210,-86,85,147,111
1,104684,-3462,354,1484,-138,-220,-94,71,151,111
1,104689,-3462,354,1484,-138,-220,-94,71,151,111
1,104695,-3462,354,1484,-138,-220,-94,71,151,111
1,104700,-3462,354,1484,-138,-220,-94,71,151,111
1,104707,-3462,351,1481,-142,-229,-88,71,151,111
1,104714,-3462,351,1481,-142,-229,-88,71,151,111
1,104720,-3462,351,1481,-142,-229,-88,71,151,111
1,104725,-3463,354,1486,-138,-226,-95,71,151,111
1,104731,-3463,354,1486,-138,-226,-95,71,151,111
1,104736,-3463,354,1486,-138,-226,-95,71,151,111
1,104741,-3463,354,1486,-138,-226,-95,71,151,111
1,104748,-3465,353,1482,-139,-217,-88,71,151,111
1,104753,-3465,353,1482,-139,-217,-88,71,151,111
1,104759,-3465,353,1482,-139,-217,-88,71,151,111
1,104764,-3465,355,1484,-141,-224,-84,71,151,111
1,104769,-3465,355,1484,-141,-224,-84,71,151,111
1,104775,-3465,355,1484,-141,-224,-84,71,151,111
1,104780,-3465,355,1484,-141,-224,-84,71,151,111
1,104786,-3465,353,1478,-138,-212,-86,71,151,111
1,104793,-3465,353,1478,-138,-212,-86,71,151,111
1,104799,-3465,353,1478,-138,-212,-86,71,151,111
1,104804,-3463,354,1483,-134,-216,-83,64,152,116
1,104810,-3463,354,1483,-134,-216,-83,64,152,116
1,104816,-3463,354,1483,-134,-216,-83,64,152,116
1,104823,-3467,352,1483,-137,-217,-90,64,152,116
1,104829,-3467,352,1483,-137,-217,-90,64,152,116
1,104835,-3467,352,1483,-137,-217,-90,64,152,116
1,104840,-3467,352,1483,-137,-217,-90,64,152,116
1,104846,-3463,353,1484,-143,-211,-90,64,152,116
1,104852,-3463,353,1484,-143,-211,-90,64,152,116
1,104857,-3463,353,1484,-143,-211,-90,64,152,116
1,104863,-3465,353,1479,-137,-225,-90,64,152,116
1,104868,-3465,353,1479,-137,-225,-90,64,152,116
1,104875,-3465,353,1479,-137,-225,-90,64,152,116
1,104880,-3465,353,1479,-137,-225,-90,64,152,116
1,104886,-3462,353,1481,-136,-226,-86,64,152,116
1,104891,-3462,353,1481,-136,-226,-86,64,152,116
1,104896,-3462,353,1481,-136,-226,-86,64,152,116
1,104902,-3462,353,1481,-136,-226,-86,64,152,116
1,104907,-3463,353,1482,-138,-222,-88,64,152,116
1,104912,-3463,353,1482,-138,-222,-88,64,152,116
1,104919,-3463,353,1482,-138,-222,-88,64,152,116
1,104924,-3464,354,1484,-140,-221,-93,76,148,118
1,104929,-3464,354,1484,-140,-221,-93,76,148,118
1,104935,-3464,354,1484,-140,-221,-93,76,148,118
1,104941,-3464,354,1484,-140,-221,-93,76,148,118
1,104946,-3464,350,1480,-134,-221,-89,76,148,118
1,104951,-3464,350,1480,-134,-221,-89,76,148,118
1,104956,-3464,350,1480,-134,-221,-89,76,148,118
1,104963,-3465,354,1484,-133,-224,-97,76,148,118
1,104968,-3465,354,1484,-133,-224,-97,76,148,118
1,104974,-3465,354,1484,-133,-224,-97,76,148,118
1,104979,-3465,354,1484,-133,-224,-97,76,148,118
1,104984,-3465,354,1486,-137,-224,-95,76,148,118
1,104991,-3465,354,1486,-137,-224,-95,76,148,118
1,104996,-3465,354,1486,-137,-224,-95,76,148,118
1,105001,-3465,354,1486,-137,-224,-95,76,148,118
1,105009,-3467,353,1484,-134,-229,-92,76,148,118
1,105015,-3467,353,1484,-134,-229,-92,76,148,118
1,105020,-3467,353,1484,-134,-229,-92,76,148,118
1,105026,-3463,351,1486,-132,-221,-94,76,148,118
1,105031,-3463,351,1486,-132,-221,-94,76,148,118
1,105037,-3463,351,1486,-132,-221,-94,76,148,118
1,105042,-3464,352,1483,-139,-221,-90,76,148,118
1,105049,-3464,352,1483,-139,-221,-90,76,148,118
1,105055,-3464,352,1483,-139,-221,-90,76,148,118
1,105060,-3464,352,1483,-139,-221,-90,76,148,118
1,105065,-3466,352,1486,-135,-224,-85,87,149,115
1,105071,-3466,352,1486,-135,-224,-85,87,149,115
1,105076,-3466,352,1486,-135,-224,-85,87,149,115
1,105082,-3466,353,1488,-137,-220,-92,87,149,115
1,105089,-3466,353,1488,-137,-220,-92,87,149,115
1,105094,-3466,353,1488,-137,-220,-92,87,149,115
1,105099,-3466,353,1488,-137,-220,-92,87,149,115
1,105104,-3464,353,1481,-141,-229,-92,87,149,115
1,105110,-3464,353,1481,-141,-229,-92,87,149,115
1,105115,-3464,353,1481,-141,-229,-92,87,149,115
1,105120,-3464,353,1481,-141,-229,-92,87,149,115
1,105125,-3465,353,1483,-140,-220,-90,87,149,115
1,105132,-3465,353,1483,-140,-220,-90,87,149,115
1,105137,-3465,353,1483,-140,-220,-90,87,149,115
1,105143,-3465,353,1483,-137,-224,-90,87,149,115
1,105148,-3465,353,1483,-137,-224,-90,87,149,115
1,105154,-3465,353,1483,-137,-224,-90,87,149,115
1,105158,-3465,353,1483,-137,-224,-90,87,149,115
1,105164,-3465,351,1484,-135,-224,-90,87,149,115
1,105169,-3465,351,1484,-135,-224,-90,87,149,115
1,105176,-3465,351,1484,-135,-224,-90,87,149,115
1,105181,-3465,351,1484,-135,-224,-90,87,149,115
1,105187,-3461,352,1487,-145,-219,-93,71,149,125
1,105192,-3461,352,1487,-145,-219,-93,71,149,125
1,105199,-3461,352,1487,-145,-219,-93,71,149,125
1,105204,-3464,353,1486,-136,-223,-83,71,149,125
1,105211,-3464,353,1486,-136,-223,-83,71,149,125
1,105217,-3464,353,1486,-136,-223,-83,71,149,125
1,105223,-3468,352,1486,-131,-222,-94,71,149,125
1,105229,-3468,352,1486,-131,-222,-94,71,149,125
1,105234,-3468,352,1486,-131,-222,-94,71,149,125
1,105240,-3468,352,1486,-131,-222,-94,71,149,125
1,105246,-3466,355,1486,-133,-218,-89,71,149,125
1,105251,-3466,355,1486,-133,-218,-89,71,149,125
1,105257,-3466,355,1486,-133,-218,-89,71,149,125
1,105263,-3466,355,1486,-133,-218,-89,71,149,125
1,105268,-3463,353,1486,-142,-220,-91,71,149,125
1,105274,-3463,353,1486,-142,-220,-91,71,149,125
1,105280,-3463,353,1486,-142,-220,-91,71,149,125
1,105286,-3462,353,1485,-144,-225,-92,71,149,125
1,105292,-3462,353,1485,-144,-225,-92,71,149,125
1,105300,-3462,353,1485,-144,-225,-92,71,149,125
1,105308,-3465,353,1484,-141,-226,-95,76,148,112
1,105313,-3465,353,1484,-141,-226,-95,76,148,112
1,105319,-3465,353,1484,-141,-226,-95,76,148,112
1,105326,-3467,353,1486,-141,-222,-90,76,148,112
1,105332,-3467,353,1486,-141,-222,-90,76,148,112
1,105338,-3467,353,1486,-141,-222,-90,76,148,112
1,105344,-3465,354,1483,-136,-222,-89,76,148,112
1,105350,-3465,354,1483,-136,-222,-89,76,148,112
1,105357,-3465,354,1483,-136,-222,-89,76,148,112
1,105364,-3466,353,1483,-137,-220,-82,76,148,112
1,105370,-3466,353,1483,-137,-220,-82,76,148,112
1,105377,-3466,353,1483,-137,-220,-82,76,148,112
1,105383,-3465,353,1479,-131,-220,-85,76,148,112
1,105391,-3465,353,1479,-131,-220,-85,76,148,112
1,105396,-3465,353,1479,-131,-220,-85,76,148,112
1,105402,-3465,353,1479,-131,-220,-85,76,148,112
1,105408,-3465,355,1486,-135,-224,-88,76,148,112
1,105414,-3465,355,1486,-135,-224,-88,76,148,112
1,105420,-3465,355,1486,-135,-224,-88,76,148,112
1,105425,-3462,352,1486,-137,-223,-96,73,151,117
1,105431,-3462,352,1486,-137,-223,-96,73,151,117
1,105436,-3462,352,1486,-137,-223,-96,73,151,117
1,105441,-3462,352,1486,-137,-223,-96,73,151,117
1,105446,-3461,354,1480,-135,-223,-88,73,151,117
1,105451,-3461,354,1480,-135,-223,-88,73,151,117
1,105457,-3461,354,1480,-135,-223,-88,73,151,117
1,105463,-3465,352,1484,-138,-220,-95,73,151,117
1,105468,-3465,352,1484,-138,-220,-95,73,151,117
1,105475,-3465,352,1484,-138,-220,-95,73,151,117
1,105480,-3465,352,1484,-138,-220,-95,73,151,117
1,105485,-3462,353,1482,-136,-217,-92,73,151,117
1,105491,-3462,353,1482,-136,-217,-92,73,151,117
1,105496,-3462,353,1482,-136,-217,-92,73,151,117
1,105502,-3462,353,1482,-136,-217,-92,73,151,117
1,105507,-3462,350,1483,-137,-218,-92,73,151,117
1,105512,-3462,350,1483,-137,-218,-92,73,151,117
1,105519,-3462,350,1483,-137,-218,-92,73,151,117
1,105524,-3462,352,1483,-135,-224,-85,73,151,117
1,105529,-3462,352,1483,-135,-224,-85,73,151,117
1,105535,-3462,352,1483,-135,-224,-85,73,151,117
1,105541,-3462,352,1483,-135,-224,-85,73,151,117
1,105547,-3463,353,1484,-141,-226,-94,77,137,113
1,105553,-3463,353,1484,-141,-226,-94,77,137,113
1,105559,-3463,353,1484,-141,-226,-94,77,137,113
1,105565,-3464,352,1487,-141,-227,-89,77,137,113
1,105571,-3464,352,1487,-141,-227,-89,77,137,113
1,105577,-3464,352,1487,-141,-227,-89,77,137,113
1,105582,-3464,352,1487,-141,-227,-89,77,137,113
1,105587,-3466,352,1481,-140,-225,-87,77,137,113
1,105592,-3466,352,1481,-140,-225,-87,77,137,113
1,105597,-3466,352,1481,-140,-225,-87,77,137,113
1,105603,-3466,352,1481,-140,-225,-87,77,137,113
1,105607,-3467,351,1483,-146,-223,-87,77,137,113
1,105612,-3467,351,1483,-146,-223,-87,77,137,113
1,105617,-3467,351,1483,-146,-223,-87,77,137,113
1,105621,-3467,351,1483,-146,-223,-87,77,137,113
1,105627,-3464,352,1480,-141,-224,-92,77,137,113
1,105632,-3464,352,1480,-141,-224,-92,77,137,113
1,105636,-3464,352,1480,-141,-224,-92,77,137,113
1,105643,-3464,352,1480,-141,-224,-92,77,137,113
1,105648,-3463,356,1487,-133,-230,-86,77,137,113
1,105653,-3463,356,1487,-133,-230,-86,77,137,113
1,105659,-3463,356,1487,-133,-230,-86,77,137,113
1,105665,-3463,352,1482,-133,-221,-85,77,137,113
1,105670,-3463,352,1482,-133,-221,-85,77,137,113
1,105676,-3463,352,1482,-133,-221,-85,77,137,113
1,105682,-3463,352,1482,-133,-221,-85,77,137,113
1,105688,-3462,349,1483,-134,-221,-89,77,137,113
1,105694,-3462,349,1483,-134,-221,-89,77,137,113
1,105700,-3462,349,1483,-134,-221,-89,77,137,113
1,105706,-3463,353,1486,-135,-221,-91,77,137,113
1,105711,-3463,353,1486,-135,-221,-91,77,137,113
1,105717,-3463,353,1486,-135,-221,-91,77,137,113
1,105722,-3463,353,1486,-135,-221,-91,77,137,113
1,105729,-3464,354,1482,-136,-224,-96,77,137,113
1,105735,-3464,354,1482,-136,-224,-96,77,137,113
1,105741,-3464,354,1482,-136,-224,-96,77,137,113
1,105748,-3464,354,1482,-136,-224,-96,77,137,113
1,105755,-3464,354,1482,-136,-224,-96,77,137,113
1,105762,-3464,354,1482,-136,-224,-96,77,137,113
1,105768,-3462,351,1484,-138,-224,-86,77,137,113
1,105774,-3462,351,1484,-138,-224,-86,77,137,113
1,105780,-3462,351,1484,-138,-224,-86,77,137,113
1,105786,-3464,349,1486,-135,-230,-86,77,137,113
1,105793,-3464,349,1486,-135,-230,-86,77,137,113
1,105800,-3464,349,1486,-135,-230,-86,77,137,113
1,105807,-3463,355,1487,-141,-226,-85,69,151,111
1,105814,-3463,355,1487,-141,-226,-85,69,151,111
1,105820,-3463,355,1487,-141,-226,-85,69,151,111
1,105825,-3467,353,1482,-140,-227,-86,69,151,111
1,105830,-3467,353,1482,-140,-227,-86,69,151,111
1,105834,-3467,353,1482,-140,-227,-86,69,151,111
1,105840,-3467,353,1482,-140,-227,-86,69,151,111
1,105845,-3465,351,1484,-137,-229,-82,69,151,111
1,105850,-3465,351,1484,-137,-229,-82,69,151,111
1,105857,-3465,351,1484,-137,-229,-82,69,151,111
1,105862,-3465,351,1484,-137,-229,-82,69,151,111
1,105867,-3465,350,1486,-137,-221,-89,69,151,111
1,105872,-3465,350,1486,-137,-221,-89,69,151,111
1,105878,-3465,350,1486,-137,-221,-89,69,151,111
1,105883,-3461,352,1480,-141,-217,-90,69,151,111
1,105889,-3461,352,1480,-141,-217,-90,69,151,111
1,105894,-3461,352,1480,-141,-217,-90,69,151,111
1,105901,-3461,352,1480,-141,-217,-90,69,151,111
1,105907,-3466,352,1481,-134,-216,-88,69,151,111
1,105913,-3466,352,1481,-134,-216,-88,69,151,111
1,105918,-3466,352,1481,-134,-216,-88,69,151,111
1,105924,-3460,352,1488,-138,-219,-97,70,150,114
1,105929,-3460,352,1488,-138,-219,-97,70,150,114
1,105935,-3460,352,1488,-138,-219,-97,70,150,114
1,105940,-3460,352,1488,-138,-219,-97,70,150,114
1,105947,-3463,354,1489,-146,-224,-97,70,150,114
1,105952,-3463,354,1489,-146,-224,-97,70,150,114
1,105958,-3463,354,1489,-146,-224,-97,70,150,114
1,105964,-3463,353,1482,-139,-217,-94,70,150,114
1,105969,-3463,353,1482,-139,-217,-94,70,150,114
1,105975,-3463,353,1482,-139,-217,-94,70,150,114
1,105981,-3463,353,1482,-139,-217,-94,70,150,114
1,105988,-3464,354,1484,-139,-223,-90,70,150,114
1,105993,-3464,354,1484,-139,-223,-90,70,150,114
1,105999,-3464,354,1484,-139,-223,-90,70,150,114
1,106004,-3464,355,1484,-132,-218,-99,70,150,114
1,106010,-3464,355,1484,-132,-218,-99,70,150,114
1,106015,-3464,355,1484,-132,-218,-99,70,150,114
1,106021,-3464,355,1484,-132,-218,-99,70,150,114
1,106025,-3468,353,1486,-131,-221,-95,70,150,114
1,106032,-3468,353,1486,-131,-221,-95,70,150,114
1,106037,-3468,353,1486,-131,-221,-95,70,150,114
1,106042,-3468,353,1486,-131,-221,-95,70,150,114
1,106048,-3466,355,1490,-139,-221,-93,76,158,112
1,106054,-3466,355,1490,-139,-221,-93,76,158,112
1,106060,-3466,355,1490,-139,-221,-93,76,158,112
1,106065,-3461,352,1487,-138,-225,-96,76,158,112
1,106072,-3461,352,1487,-138,-225,-96,76,158,112
1,106076,-3461,352,1487,-138,-225,-96,76,158,112
1,106082,-3461,352,1487,-138,-225,-96,76,158,112
1,106087,-3466,353,1482,-140,-227,-95,76,158,112
1,106093,-3466,353,1482,-140,-227,-95,76,158,112
1,106098,-3466,353,1482,-140,-227,-95,76,158,112
1,106104,-3464,352,1486,-143,-233,-99,76,158,112
1,106110,-3464,352,1486,-143,-233,-99,76,158,112
1,106116,-3464,352,1486,-143,-233,-99,76,158,112
1,106121,-3464,352,1486,-143,-233,-99,76,158,112
1,106127,-3464,350,1486,-137,-222,-98,76,158,112
1,106132,-3464,350,1486,-137,-222,-98,76,158,112
1,106137,-3464,350,1486,-137,-222,-98,76,158,112
1,106142,-3464,350,1486,-137,-222,-98,76,158,112
1,106148,-3463,352,1481,-141,-221,-89,76,158,112
1,106153,-3463,352,1481,-141,-221,-89,76,158,112
1,106160,-3463,352,1481,-141,-221,-89,76,158,112
1,106165,-3462,353,1488,-138,-221,-86,71,151,121
1,106171,-3462,353,1488,-138,-221,-86,71,151,121
1,106177,-3462,353,1488,-138,-221,-86,71,151,121
1,106182,-3462,353,1488,-138,-221,-86,71,151,121
1,106188,-3465,353,1486,-139,-225,-89,71,151,121
1,106193,-3465,353,1486,-139,-225,-89,71,151,121
1,106200,-3465,353,1486,-139,-225,-89,71,151,121
1,106206,-3465,351,1482,-144,-227,-92,71,151,121
1,106212,-3465,351,1482,-144,-227,-92,71,151,121
1,106217,-3465,351,1482,-144,-227,-92,71,151,121
1,106222,-3465,351,1482,-144,-227,-92,71,151,121
1,106228,-3465,352,1476,-139,-230,-96,71,151,121
1,106234,-3465,352,1476,-139,-230,-96,71,151,121
1,106241,-3465,352,1476,-139,-230,-96,71,151,121
1,106246,-3467,353,1483,-138,-225,-86,71,151,121
1,106252,-3467,353,1483,-138,-225,-86,71,151,121
1,106259,-3467,353,1483,-138,-225,-86,71,151,121
1,106265,-3468,352,1483,-141,-223,-88,71,151,121
1,106270,-3468,352,1483,-141,-223,-88,71,151,121
1,106276,-3468,352,1483,-141,-223,-88,71,151,121
1,106281,-3468,352,1483,-141,-223,-88,71,151,121
1,106288,-3465,351,1485,-135,-221,-92,70,152,114
1,106293,-3465,351,1485,-135,-221,-92,70,152,114
1,106298,-3465,351,1485,-135,-221,-92,70,152,114
1,106304,-3465,355,1484,-140,-221,-90,70,152,114
1,106310,-3465,355,1484,-140,-221,-90,70,152,114
1,106315,-3465,355,1484,-140,-221,-90,70,152,114
1,106320,-3465,355,1484,-140,-221,-90,70,152,114
1,106326,-3464,354,1479,-145,-210,-91,70,152,114
1,106331,-3464,354,1479,-145,-210,-91,70,152,114
1,106337,-3464,354,1479,-145,-210,-91,70,152,114
1,106342,-3464,354,1479,-145,-210,-91,70,152,114
1,106347,-3462,352,1485,-135,-223,-94,70,152,114
1,106353,-3462,352,1485,-135,-223,-94,70,152,114
1,106358,-3462,352,1485,-135,-223,-94,70,152,114
1,106364,-3465,354,1479,-135,-225,-90,70,152,114
1,106372,-3465,354,1479,-135,-225,-90,70,152,114
1,106377,-3465,354,1479,-135,-225,-90,70,152,114
1,106382,-3465,354,1479,-135,-225,-90,70,152,114
1,106388,-3464,352,1485,-135,-226,-89,70,152,114
1,106393,-3464,352,1485,-135,-226,-89,70,152,114
1,106398,-3464,352,1485,-135,-226,-89,70,152,114
1,106403,-3460,351,1483,-141,-223,-94,70,152,114
1,106409,-3460,351,1483,-141,-223,-94,70,152,114
1,106415,-3460,351,1483,-141,-223,-94,70,152,114
1,106420,-3460,351,1483,-141,-223,-94,70,152,114
1,106425,-3464,353,1488,-129,-218,-89,73,159,121
1,106431,-3464,353,1488,-129,-218,-89,73,159,121
1,106436,-3464,353,1488,-129,-218,-89,73,159,121
1,106442,-3464,353,1488,-129,-218,-89,73,159,121
1,106447,-3462,350,1483,-138,-221,-93,73,159,121
1,106454,-3462,350,1483,-138,-221,-93,73,159,121
1,106460,-3462,350,1483,-138,-221,-93,73,159,121
1,106465,-3462,350,1483,-138,-221,-93,73,159,121
1,106470,-3462,350,1483,-138,-221,-93,73,159,121
1,106475,-3462,350,1483,-138,-221,-93,73,159,121
1,106480,-3462,350,1483,-138,-221,-93,73,159,121
1,106486,-3465,353,1481,-133,-211,-91,73,159,121
1,106491,-3465,353,1481,-133,-211,-91,73,159,121
1,106498,-3465,353,1481,-133,-211,-91,73,159,121
1,106503,-3465,353,1481,-133,-211,-91,73,159,121
1,106509,-3464,351,1481,-127,-214,-87,73,159,121
1,106514,-3464,351,1481,-127,-214,-87,73,159,121
1,106519,-3464,351,1481,-127,-214,-87,73,159,121
1,106524,-3465,351,1486,-136,-219,-87,73,159,121
1,106529,-3465,351,1486,-136,-219,-87,73,159,121
1,106534,-3465,351,1486,-136,-219,-87,73,159,121
1,106540,-3465,351,1486,-136,-219,-87,73,159,121
1,106546,-3461,353,1484,-136,-224,-89,72,158,114
1,106551,-3461,353,1484,-136,-224,-89,72,158,114
1,106557,-3461,353,1484,-136,-224,-89,72,158,114
1,106562,-3461,353,1484,-136,-224,-89,72,158,114
1,106567,-3464,351,1489,-139,-220,-88,72,158,114
1,106572,-3464,351,1489,-139,-220,-88,72,158,114
1,106577,-3464,351,1489,-139,-220,-88,72,158,114
1,106583,-3464,351,1489,-139,-220,-88,72,158,114
1,106589,-3465,350,1485,-141,-218,-92,72,158,114
1,106595,-3465,350,1485,-141,-218,-92,72,158,114
1,106600,-3465,350,1485,-141,-218,-92,72,158,114
1,106606,-3465,353,1486,-142,-217,-92,72,158,114
1,106612,-3465,353,1486,-142,-217,-92,72,158,114
1,106618,-3465,353,1486,-142,-217,-92,72,158,114
1,106624,-3462,356,1482,-142,-216,-89,72,158,114
1,106629,-3462,356,1482,-142,-216,-89,72,158,114
1,106635,-3462,356,1482,-142,-216,-89,72,158,114
1,106640,-3462,356,1482,-142,-216,-89,72,158,114
1,106645,-3466,354,1485,-140,-215,-92,72,158,114
1,106651,-3466,354,1485,-140,-215,-92,72,158,114
1,106657,-3466,354,1485,-140,-215,-92,72,158,114
1,106662,-3466,354,1485,-140,-215,-92,72,158,114
1,106668,-3463,352,1485,-140,-211,-95,69,145,121
1,106674,-3463,352,1485,-140,-211,-95,69,145,121
1,106680,-3463,352,1485,-140,-211,-95,69,145,121
1,106685,-3464,352,1488,-132,-213,-99,69,145,121
1,106691,-3464,352,1488,-132,-213,-99,69,145,121
1,106697,-3464,352,1488,-132,-213,-99,69,145,121
1,106702,-3464,352,1488,-132,-213,-99,69,145,121
1,106708,-3465,353,1486,-130,-216,-94,69,145,121
1,106715,-3465,353,1486,-130,-216,-94,69,145,121
1,106720,-3465,353,1486,-130,-216,-94,69,145,121
1,106726,-3468,356,1481,-140,-220,-88,69,145,121
1,106731,-3468,356,1481,-140,-220,-88,69,145,121
1,106737,-3468,356,1481,-140,-220,-88,69,145,121
1,106743,-3468,356,1481,-140,-220,-88,69,145,121
1,106748,-3466,356,1480,-143,-224,-87,69,145,121
1,106755,-3466,356,1480,-143,-224,-87,69,145,121
1,106760,-3466,356,1480,-143,-224,-87,69,145,121
1,106766,-3466,352,1481,-144,-221,-90,69,145,121
1,106772,-3466,352,1481,-144,-221,-90,69,145,121
1,106778,-3466,352,1481,-144,-221,-90,69,145,121
1,106783,-3466,352,1481,-144,-221,-90,69,145,121
1,106789,-3462,351,1486,-146,-228,-96,75,157,119
1,106795,-3462,351,1486,-146,-228,-96,75,157,119
1,106801,-3462,351,1486,-146,-228,-96,75,157,119
1,106806,-3461,353,1483,-138,-219,-87,75,157,119
1,106811,-3461,353,1483,-138,-219,-87,75,157,119
1,106817,-3461,353,1483,-138,-219,-87,75,157,119
1,106823,-3461,353,1483,-138,-219,-87,75,157,119
1,106828,-3462,351,1482,-137,-219,-86,75,157,119
1,106835,-3462,351,1482,-137,-219,-86,75,157,119
1,106841,-3462,351,1482,-137,-219,-86,75,157,119
1,106847,-3463,356,1486,-135,-219,-89,75,157,119
1,106853,-3463,356,1486,-135,-219,-89,75,157,119
1,106859,-3463,356,1486,-135,-219,-89,75,157,119
1,106865,-3464,351,1483,-137,-212,-96,75,157,119
1,106870,-3464,351,1483,-137,-212,-96,75,157,119
1,106875,-3464,351,1483,-137,-212,-96,75,157,119
1,106882,-3464,351,1483,-137,-212,-96,75,157,119
1,106888,-3466,353,1482,-138,-217,-96,75,157,119
1,106893,-3466,353,1482,-138,-217,-96,75,157,119
1,106897,-3466,353,1482,-138,-217,-96,75,157,119
1,106902,-3466,353,1482,-138,-217,-96,75,157,119
1,106908,-3465,352,1484,-144,-219,-92,74,152,114
1,106913,-3465,352,1484,-144,-219,-92,74,152,114
1,106918,-3465,352,1484,-144,-219,-92,74,152,114
1,106924,-3465,352,1484,-144,-219,-92,74,152,114
1,106930,-3467,352,1483,-139,-215,-94,74,152,114
1,106935,-3467,352,1483,-139,-215,-94,74,152,114
1,106940,-3467,352,1483,-139,-215,-94,74,152,114
1,106946,-3465,351,1486,-133,-212,-97,74,152,114
1,106951,-3465,351,1486,-133,-212,-97,74,152,114
1,106956,-3465,351,1486,-133,-212,-97,74,152,114
1,106963,-3465,351,1486,-133,-212,-97,74,152,114
1,106970,-3466,354,1483,-138,-212,-92,74,152,114
1,106976,-3466,354,1483,-138,-212,-92,74,152,114
1,106981,-3466,354,1483,-138,-212,-92,74,152,114
1,106987,-3462,352,1483,-138,-217,-93,74,152,114
1,106992,-3462,352,1483,-138,-217,-93,74,152,114
1,106998,-3462,352,1483,-138,-217,-93,74,152,114
1,107004,-3462,352,1483,-138,-217,-93,74,152,114
1,107010,-3463,353,1485,-136,-215,-93,74,152,114
1,107015,-3463,353,1485,-136,-215,-93,74,152,114
1,107020,-3463,353,1485,-136,-215,-93,74,152,114
1,107026,-3465,354,1479,-142,-214,-91,70,152,116
1,107031,-3465,354,1479,-142,-214,-91,70,152,116
1,107037,-3465,354,1479,-142,-214,-91,70,152,116
1,107043,-3465,354,1479,-142,-214,-91,70,152,116
1,107048,-3466,352,1485,-144,-221,-90,70,152,116
1,107056,-3466,352,1485,-144,-221,-90,70,152,116
1,107061,-3466,352,1485,-144,-221,-90,70,152,116
1,107066,-3461,352,1479,-138,-216,-93,70,152,116
1,107072,-3461,352,1479,-138,-216,-93,70,152,116
1,107077,-3461,352,1479,-138,-216,-93,70,152,116
1,107083,-3461,352,1479,-138,-216,-93,70,152,116
1,107088,-3463,353,1484,-136,-221,-92,70,152,116
1,107095,-3463,353,1484,-136,-221,-92,70,152,116
1,107100,-3463,353,1484,-136,-221,-92,70,152,116
1,107106,-3461,351,1484,-134,-224,-93,70,152,116
1,107111,-3461,351,1484,-134,-224,-93,70,152,116
1,107117,-3461,351,1484,-134,-224,-93,70,152,116
1,107122,-3461,351,1484,-134,-224,-93,70,152,116
1,107127,-3462,351,1481,-139,-213,-91,70,152,116
1,107133,-3462,351,1481,-139,-213,-91,70,152,116
1,107139,-3462,351,1481,-139,-213,-91,70,152,116
1,107145,-3465,352,1484,-137,-214,-90,70,152,116
1,107150,-3465,352,1484,-137,-214,-90,70,152,116
1,107156,-3465,352,1484,-137,-214,-90,70,152,116
1,107161,-3465,352,1484,-137,-214,-90,70,152,116
1,107167,-3466,355,1482,-141,-207,-88,81,153,119
1,107172,-3466,355,1482,-141,-207,-88,81,153,119
1,107179,-3466,355,1482,-141,-207,-88,81,153,119
1,107184,-3466,355,1482,-141,-207,-88,81,153,119
1,107189,-3465,352,1485,-131,-215,-89,81,153,119
1,107195,-3465,352,1485,-131,-215,-89,81,153,119
1,107201,-3465,352,1485,-131,-215,-89,81,153,119
1,107207,-3463,348,1480,-136,-217,-95,81,153,119
1,107213,-3463,348,1480,-136,-217,-95,81,153,119
1,107217,-3463,348,1480,-136,-217,-95,81,153,119
1,107224,-3463,348,1480,-136,-217,-95,81,153,119
1,107229,-3466,355,1483,-138,-216,-92,81,153,119
1,107234,-3466,355,1483,-138,-216,-92,81,153,119
1,107240,-3466,355,1483,-138,-216,-92,81,153,119
1,107246,-3466,353,1485,-139,-220,-90,81,153,119
1,107251,-3466,353,1485,-139,-220,-90,81,153,119
1,107257,-3466,353,1485,-139,-220,-90,81,153,119
1,107264,-3466,353,1485,-139,-220,-90,81,153,119
1,107270,-3465,352,1482,-133,-219,-89,81,153,119
1,107276,-3465,352,1482,-133,-219,-89,81,153,119
1,107281,-3465,352,1482,-133,-219,-89,81,153,119
1,107287,-3464,353,1487,-145,-218,-95,70,146,112
1,107293,-3464,353,1487,-145,-218,-95,70,146,112
1,107298,-3464,353,1487,-145,-218,-95,70,146,112
1,107303,-3464,353,1487,-145,-218,-95,70,146,112
1,107310,-3466,353,1491,-133,-213,-86,70,146,112
1,107316,-3466,353,1491,-133,-213,-86,70,146,112
1,107323,-3466,353,1491,-133,-213,-86,70,146,112
1,107330,-3464,352,1482,-141,-218,-93,70,146,112
1,107336,-3464,352,1482,-141,-218,-93,70,146,112
1,107342,-3464,352,1482,-141,-218,-93,70,146,112
1,107350,-3463,352,1481,-138,-218,-95,70,146,112
1,107356,-3463,352,1481,-138,-218,-95,70,146,112
1,107360,-3463,352,1481,-138,-218,-95,70,146,112
1,107367,-3465,353,1485,-141,-216,-92,70,146,112
1,107372,-3465,353,1485,-141,-216,-92,70,146,112
1,107378,-3465,353,1485,-141,-216,-92,70,146,112
1,107383,-3465,353,1485,-141,-216,-92,70,146,112
1,107388,-3463,350,1483,-141,-221,-91,70,146,112
1,107394,-3463,350,1483,-141,-221,-91,70,146,112
1,107401,-3463,350,1483,-141,-221,-91,70,146,112
1,107409,-3465,351,1490,-140,-225,-90,74,154,120
1,107413,-3465,351,1490,-140,-225,-90,74,154,120
1,107418,-3465,351,1490,-140,-225,-90,74,154,120
1,107423,-3465,351,1490,-140,-225,-90,74,154,120
1,107428,-3464,350,1485,-145,-220,-93,74,154,120
1,107432,-3464,350,1485,-145,-220,-93,74,154,120
1,107438,-3464,350,1485,-145,-220,-93,74,154,120
1,107444,-3464,350,1485,-145,-220,-93,74,154,120
1,107448,-3465,355,1484,-143,-218,-92,74,154,120
1,107454,-3465,355,1484,-143,-218,-92,74,154,120
1,107459,-3465,355,1484,-143,-218,-92,74,154,120
1,107465,-3464,351,1486,-140,-206,-89,74,154,120
1,107470,-3464,351,1486,-140,-206,-89,74,154,120
1,107475,-3464,351,1486,-140,-206,-89,74,154,120
1,107482,-3464,351,1486,-140,-206,-89,74,154,120
1,107487,-3465,354,1484,-136,-218,-93,74,154,120
1,107493,-3465,354,1484,-136,-218,-93,74,154,120
1,107499,-3465,354,1484,-136,-218,-93,74,154,120
1,107504,-3465,354,1484,-136,-218,-93,74,154,120
1,107510,-3466,356,1478,-139,-221,-93,74,154,120
1,107516,-3466,356,1478,-139,-221,-93,74,154,120
1,107523,-3466,356,1478,-139,-221,-93,74,154,120
1,107528,-3466,352,1487,-137,-217,-91,71,155,115
1,107534,-3466,352,1487,-137,-217,-91,71,155,115
1,107540,-3466,352,1487,-137,-217,-91,71,155,115
1,107546,-3462,349,1485,-127,-215,-94,71,155,115
1,107551,-3462,349,1485,-127,-215,-94,71,155,115
1,107557,-3462,349,1485,-127,-215,-94,71,155,115
1,107563,-3462,349,1485,-127,-215,-94,71,155,115
1,107570,-3463,353,1486,-140,-215,-91,71,155,115
1,107576,-3463,353,1486,-140,-215,-91,71,155,115
1,107581,-3463,353,1486,-140,-215,-91,71,155,115
1,107586,-3465,355,1488,-142,-212,-93,71,155,115
1,107592,-3465,355,1488,-142,-212,-93,71,155,115
1,107597,-3465,355,1488,-142,-212,-93,71,155,115
1,107604,-3465,355,1488,-142,-212,-93,71,155,115
1,107610,-3463,352,1481,-136,-218,-90,71,155,115
1,107615,-3463,352,1481,-136,-218,-90,71,155,115
1,107620,-3463,352,1481,-136,-218,-90,71,155,115
1,107625,-3467,353,1479,-137,-219,-87,71,155,115
1,107631,-3467,353,1479,-137,-219,-87,71,155,115
1,107636,-3467,353,1479,-137,-219,-87,71,155,115
1,107641,-3467,353,1479,-137,-219,-87,71,155,115
1,107648,-3464,353,1481,-141,-222,-91,73,151,117
1,107653,-3464,353,1481,-141,-222,-91,73,151,117
1,107659,-3464,353,1481,-141,-222,-91,73,151,117
1,107664,-3464,353,1481,-141,-222,-91,73,151,117
1,107669,-3463,353,1489,-138,-220,-83,73,151,117
1,107676,-3463,353,1489,-138,-220,-83,73,151,117
1,107682,-3463,353,1489,-138,-220,-83,73,151,117
1,107687,-3462,352,1481,-135,-219,-92,73,151,117
1,107694,-3462,352,1481,-135,-219,-92,73,151,117
1,107699,-3462,352,1481,-135,-219,-92,73,151,117
1,107705,-3462,352,1481,-135,-219,-92,73,151,117
1,107710,-3464,352,1482,-146,-222,-91,73,151,117
1,107716,-3464,352,1482,-146,-222,-91,73,151,117
1,107722,-3464,352,1482,-146,-222,-91,73,151,117
1,107727,-3463,353,1483,-144,-226,-91,73,151,117
1,107731,-3463,353,1483,-144,-226,-91,73,151,117
1,107737,-3463,353,1483,-144,-226,-91,73,151,117
1,107743,-3463,353,1483,-144,-226,-91,73,151,117
1,107747,-3463,353,1484,-135,-215,-84,73,151,117
1,107752,-3463,353,1484,-135,-215,-84,73,151,117
1,107757,-3463,353,1484,-135,-215,-84,73,151,117
1,107762,-3463,353,1484,-135,-215,-84,73,151,117
1,107767,-3464,354,1484,-137,-218,-92,73,151,117
1,107772,-3464,354,1484,-137,-218,-92,73,151,117
1,107778,-3464,354,1484,-137,-218,-92,73,151,117
1,107783,-3464,354,1484,-137,-218,-92,73,151,117
1,107789,-3463,355,1488,-135,-215,-90,75,157,115
1,107794,-3463,355,1488,-135,-215,-90,75,157,115
1,107799,-3463,355,1488,-135,-215,-90,75,157,115
1,107805,-3462,352,1487,-140,-220,-92,75,157,115
1,107811,-3462,352,1487,-140,-220,-92,75,157,115
1,107817,-3462,352,1487,-140,-220,-92,75,157,115
1,107823,-3462,352,1487,-140,-220,-92,75,157,115
1,107828,-3465,355,1486,-150,-214,-98,75,157,115
1,107834,-3465,355,1486,-150,-214,-98,75,157,115
1,107840,-3465,355,1486,-150,-214,-98,75,157,115
1,107846,-3466,352,1485,-141,-222,-92,75,157,115
1,107853,-3466,352,1485,-141,-222,-92,75,157,115
1,107858,-3466,352,1485,-141,-222,-92,75,157,115
1,107865,-3466,352,1485,-141,-222,-92,75,157,115
1,107870,-3466,350,1484,-148,-221,-90,75,157,115
1,107875,-3466,350,1484,-148,-221,-90,75,157,115
1,107881,-3466,350,1484,-148,-221,-90,75,157,115
1,107888,-3464,354,1481,-141,-229,-93,75,157,115
1,107895,-3464,354,1481,-141,-229,-93,75,157,115
1,107902,-3464,354,1481,-141,-229,-93,75,157,115
1,107909,-3464,354,1483,-138,-218,-92,72,150,114
1,107914,-3464,354,1483,-138,-218,-92,72,150,114
1,107920,-3464,354,1483,-138,-218,-92,72,150,114
1,107925,-3465,352,1480,-141,-218,-91,72,150,114
1,107931,-3465,352,1480,-141,-218,-91,72,150,114
1,107937,-3465,352,1480,-141,-218,-91,72,150,114
1,107942,-3465,352,1480,-141,-218,-91,72,150,114
1,107948,-3463,355,1487,-143,-224,-90,72,150,114
1,107954,-3463,355,1487,-143,-224,-90,72,150,114
1,107959,-3463,355,1487,-143,-224,-90,72,150,114
1,107964,-3463,355,1487,-143,-224,-90,72,150,114
1,107970,-3466,354,1483,-138,-220,-93,72,150,114
1,107976,-3466,354,1483,-138,-220,-93,72,150,114
1,107981,-3466,354,1483,-138,-220,-93,72,150,114
1,107987,-3467,351,1484,-140,-219,-91,72,150,114
1,107993,-3467,351,1484,-140,-219,-91,72,150,114
1,107998,-3467,351,1484,-140,-219,-91,72,150,114
1,108004,-3467,351,1484,-140,-219,-91,72,150,114
1,108009,-3465,354,1483,-138,-220,-92,72,150,114
1,108015,-3465,354,1483,-138,-220,-92,72,150,114
1,108021,-3465,354,1483,-138,-220,-92,72,150,114
1,108027,-3465,354,1483,-138,-220,-92,69,157,109
1,108033,-3465,354,1483,-138,-220,-92,69,157,109
1,108039,-3465,354,1483,-138,-220,-92,69,157,109
1,108045,-3465,354,1483,-138,-220,-92,69,157,109
1,108050,-3464,352,1488,-140,-215,-98,69,157,109
1,108056,-3464,352,1488,-140,-215,-98,69,157,109
1,108061,-3464,352,1488,-140,-215,-98,69,157,109
1,108068,-3463,351,1490,-146,-220,-99,69,157,109
1,108075,-3463,351,1490,-146,-220,-99,69,157,109
1,108081,-3463,351,1490,-146,-220,-99,69,157,109
1,108086,-3466,353,1480,-147,-222,-89,69,157,109
1,108092,-3466,353,1480,-147,-222,-89,69,157,109
1,108097,-3466,353,1480,-147,-222,-89,69,157,109
1,108103,-3466,353,1480,-147,-222,-89,69,157,109
1,108109,-3465,352,1481,-141,-208,-94,69,157,109
1,108114,-3465,352,1481,-141,-208,-94,69,157,109
1,108121,-3465,352,1481,-141,-208,-94,69,157,109
1,108126,-3468,353,1486,-139,-217,-93,69,157,109
1,108131,-3468,353,1486,-139,-217,-93,69,157,109
1,108137,-3468,353,1486,-139,-217,-93,69,157,109
1,108142,-3468,353,1486,-139,-217,-93,69,157,109
1,108147,-3465,353,1486,-138,-223,-90,68,148,112
1,108153,-3465,353,1486,-138,-223,-90,68,148,112
1,108160,-3465,353,1486,-138,-223,-90,68,148,112
1,108165,-3465,353,1486,-138,-223,-90,68,148,112
1,108171,-3463,352,1484,-147,-219,-95,68,148,112
1,108176,-3463,352,1484,-147,-219,-95,68,148,112
1,108181,-3463,352,1484,-147,-219,-95,68,148,112
1,108186,-3464,352,1487,-141,-214,-90,68,148,112
1,108192,-3464,352,1487,-141,-214,-90,68,148,112
1,108197,-3464,352,1487,-141,-214,-90,68,148,112
1,108204,-3464,352,1487,-141,-214,-90,68,148,112
1,108209,-3464,353,1484,-142,-213,-90,68,148,112
1,108215,-3464,353,1484,-142,-213,-90,68,148,112
1,108220,-3464,353,1484,-142,-213,-90,68,148,112
1,108225,-3464,353,1484,-142,-213,-90,68,148,112
1,108231,-3467,353,1481,-138,-222,-82,68,148,112
1,108236,-3467,353,1481,-138,-222,-82,68,148,112
1,108242,-3467,353,1481,-138,-222,-82,68,148,112
1,108248,-3465,350,1485,-138,-213,-87,68,148,112
1,108253,-3465,350,1485,-138,-213,-87,68,148,112
1,108259,-3465,350,1485,-138,-213,-87,68,148,112
1,108264,-3465,350,1485,-138,-213,-87,68,148,112
1,108269,-3466,354,1483,-133,-219,-88,71,143,121
1,108274,-3466,354,1483,-133,-219,-88,71,143,121
1,108280,-3466,354,1483,-133,-219,-88,71,143,121
1,108285,-3466,351,1487,-138,-219,-93,71,143,121
1,108292,-3466,351,1487,-138,-219,-93,71,143,121
1,108297,-3466,351,1487,-138,-219,-93,71,143,121
1,108304,-3466,351,1487,-138,-219,-93,71,143,121
1,108309,-3462,350,1478,-139,-217,-97,71,143,121
1,108315,-3462,350,1478,-139,-217,-97,71,143,121
1,108320,-3462,350,1478,-139,-217,-97,71,143,121
1,108326,-3464,353,1484,-140,-220,-96,71,143,121
1,108332,-3464,353,1484,-140,-220,-96,71,143,121
1,108338,-3464,353,1484,-140,-220,-96,71,143,121
1,108343,-3464,353,1484,-140,-220,-96,71,143,121
1,108348,-3461,351,1481,-140,-224,-98,71,143,121
1,108354,-3461,351,1481,-140,-224,-98,71,143,121
1,108360,-3461,351,1481,-140,-224,-98,71,143,121
1,108366,-3463,351,1484,-146,-213,-89,71,143,121
1,108372,-3463,351,1484,-146,-213,-89,71,143,121
1,108379,-3463,351,1484,-146,-213,-89,71,143,121
1,108384,-3463,351,1484,-146,-213,-89,71,143,121
1,108390,-3465,354,1486,-140,-213,-92,72,154,112
1,108396,-3465,354,1486,-140,-213,-92,72,154,112
1,108401,-3465,354,1486,-140,-213,-92,72,154,112
1,108407,-3462,355,1486,-134,-218,-92,72,154,112
1,108412,-3462,355,1486,-134,-218,-92,72,154,112
1,108419,-3462,355,1486,-134,-218,-92,72,154,112
1,108424,-3462,355,1486,-134,-218,-92,72,154,112
1,108430,-3463,352,1482,-143,-216,-88,72,154,112
1,108436,-3463,352,1482,-143,-216,-88,72,154,112
1,108442,-3463,352,1482,-143,-216,-88,72,154,112
1,108447,-3464,353,1484,-139,-222,-89,72,154,112
1,108453,-3464,353,1484,-139,-222,-89,72,154,112
1,108459,-3464,353,1484,-139,-222,-89,72,154,112
1,108464,-3464,353,1484,-139,-222,-89,72,154,112
1,108470,-3465,353,1483,-139,-221,-96,72,154,112
1,108476,-3465,353,1483,-139,-221,-96,72,154,112
1,108482,-3465,353,1483,-139,-221,-96,72,154,112
1,108488,-3463,353,1483,-136,-215,-92,72,154,112
1,108494,-3463,353,1483,-136,-215,-92,72,154,112
1,108499,-3463,353,1483,-136,-215,-92,72,154,112
1,108506,-3463,353,1483,-136,-215,-92,72,154,112
1,108511,-3463,353,1482,-138,-214,-83,72,154,112
1,108515,-3463,353,1482,-138,-214,-83,72,154,112
1,108520,-3463,353,1482,-138,-214,-83,72,154,112
1,108525,-3463,353,1482,-138,-214,-83,72,154,112
1,108530,-3463,354,1489,-135,-217,-87,63,153,121
1,108535,-3463,354,1489,-135,-217,-87,63,153,121
1,108540,-3463,354,1489,-135,-217,-87,63,153,121
1,108546,-3463,354,1489,-135,-217,-87,63,153,121
1,108551,-3464,355,1483,-135,-222,-87,63,153,121
1,108556,-3464,355,1483,-135,-222,-87,63,153,121
1,108561,-3464,355,1483,-135,-222,-87,63,153,121
1,108566,-3464,355,1483,-135,-222,-87,63,153,121
1,108570,-3465,355,1482,-146,-219,-92,63,153,121
1,108575,-3465,355,1482,-146,-219,-92,63,153,121
1,108580,-3465,355,1482,-146,-219,-92,63,153,121
1,108585,-3463,355,1479,-147,-224,-97,63,153,121
1,108592,-3463,355,1479,-147,-224,-97,63,153,121
1,108600,-3463,355,1479,-147,-224,-97,63,153,121
1,108605,-3463,355,1479,-147,-224,-97,63,153,121
1,108611,-3467,351,1486,-141,-217,-90,63,153,121
1,108616,-3467,351,1486,-141,-217,-90,63,153,121
1,108621,-3467,351,1486,-141,-217,-90,63,153,121
1,108627,-3463,351,1485,-141,-219,-89,63,153,121
1,108633,-3463,351,1485,-141,-219,-89,63,153,121
1,108639,-3463,351,1485,-141,-219,-89,63,153,121
1,108645,-3463,351,1485,-141,-219,-89,63,153,121
1,108650,-3465,352,1487,-134,-218,-83,66,154,108
1,108656,-3465,352,1487,-134,-218,-83,66,154,108
1,108661,-3465,352,1487,-134,-218,-83,66,154,108
1,108667,-3463,353,1481,-134,-215,-86,66,154,108
1,108674,-3463,353,1481,-134,-215,-86,66,154,108
1,108679,-3463,353,1481,-134,-215,-86,66,154,108
1,108685,-3463,353,1481,-134,-215,-86,66,154,108
1,108691,-3466,351,1481,-134,-217,-90,66,154,108
1,108697,-3466,351,1481,-134,-217,-90,66,154,108
1,108702,-3466,351,1481,-134,-217,-90,66,154,108
1,108707,-3462,353,1486,-142,-220,-89,66,154,108
1,108712,-3462,353,1486,-142,-220,-89,66,154,108
1,108719,-3462,353,1486,-142,-220,-89,66,154,108
1,108724,-3462,353,1486,-142,-220,-89,66,154,108
1,108730,-3462,354,1485,-139,-217,-89,66,154,108
1,108735,-3462,354,1485,-139,-217,-89,66,154,108
1,108740,-3462,354,1485,-139,-217,-89,66,154,108
1,108745,-3462,354,1485,-139,-217,-89,66,154,108
1,108751,-3465,348,1484,-142,-218,-94,66,154,108
1,108756,-3465,348,1484,-142,-218,-94,66,154,108
1,108762,-3465,348,1484,-142,-218,-94,66,154,108
1,108768,-3463,353,1485,-146,-214,-89,65,149,113
1,108773,-3463,353,1485,-146,-214,-89,65,149,113
1,108778,-3463,353,1485,-146,-214,-89,65,149,113
1,108784,-3463,353,1485,-146,-214,-89,65,149,113
1,108790,-3464,353,1488,-143,-215,-93,65,149,113
1,108795,-3464,353,1488,-143,-215,-93,65,149,113
1,108802,-3464,353,1488,-143,-215,-93,65,149,113
1,108808,-3464,352,1483,-143,-219,-84,65,149,113
1,108813,-3464,352,1483,-143,-219,-84,65,149,113
1,108818,-3464,352,1483,-143,-219,-84,65,149,113
1,108824,-3464,352,1483,-143,-219,-84,65,149,113
1,108831,-3463,352,1483,-142,-216,-90,65,149,113
1,108837,-3463,352,1483,-142,-216,-90,65,149,113
1,108843,-3463,352,1483,-142,-216,-90,65,149,113
1,108848,-3464,354,1484,-141,-220,-87,65,149,113
1,108854,-3464,354,1484,-141,-220,-87,65,149,113
1,108859,-3464,354,1484,-141,-220,-87,65,149,113
1,108864,-3464,354,1484,-141,-220,-87,65,149,113
1,108870,-3465,355,1479,-138,-217,-90,65,149,113
1,108875,-3465,355,1479,-138,-217,-90,65,149,113
1,108881,-3465,355,1479,-138,-217,-90,65,149,113
1,108887,-3466,354,1490,-138,-226,-93,68,148,110
1,108893,-3466,354,1490,-138,-226,-93,68,148,110
1,108898,-3466,354,1490,-138,-226,-93,68,148,110
1,108904,-3466,354,1490,-138,-226,-93,68,148,110
1,108910,-3462,352,1488,-137,-220,-98,68,148,110
1,108916,-3462,352,1488,-137,-220,-98,68,148,110
1,108923,-3462,352,1488,-137,-220,-98,68,148,110
1,108929,-3464,354,1483,-137,-222,-97,68,148,110
1,108934,-3464,354,1483,-137,-222,-97,68,148,110
1,108940,-3464,354,1483,-137,-222,-97,68,148,110
1,108945,-3464,354,1483,-137,-222,-97,68,148,110
1,108950,-3464,351,1484,-135,-215,-91,68,148,110
1,108956,-3464,351,1484,-135,-215,-91,68,148,110
1,108962,-3464,351,1484,-135,-215,-91,68,148,110
1,108968,-3464,353,1487,-142,-217,-87,68,148,110
1,108974,-3464,353,1487,-142,-217,-87,68,148,110
1,108981,-3464,353,1487,-142,-217,-87,68,148,110
1,108986,-3463,354,1483,-131,-216,-93,68,148,110
1,108991,-3463,354,1483,-131,-216,-93,68,148,110
1,108997,-3463,354,1483,-131,-216,-93,68,148,110
1,109003,-3463,354,1483,-131,-216,-93,68,148,110
1,109008,-3464,354,1482,-134,-222,-90,66,152,108
1,109014,-3464,354,1482,-134,-222,-90,66,152,108
1,109021,-3464,354,1482,-134,-222,-90,66,152,108
1,109027,-3463,354,1486,-132,-222,-93,66,152,108
1,109033,-3463,354,1486,-132,-222,-93,66,152,108
1,109039,-3463,354,1486,-132,-222,-93,66,152,108
1,109046,-3463,354,1486,-132,-222,-93,66,152,108
1,109052,-3464,354,1486,-134,-220,-92,66,152,108
1,109059,-3464,354,1486,-134,-220,-92,66,152,108
1,109064,-3464,354,1486,-134,-220,-92,66,152,108
1,109071,-3469,352,1482,-133,-216,-89,66,152,108
1,109078,-3469,352,1482,-133,-216,-89,66,152,108
1,109084,-3469,352,1482,-133,-216,-89,66,152,108
1,109091,-3464,352,1479,-132,-214,-91,66,152,108
1,109096,-3464,352,1479,-132,-214,-91,66,152,108
1,109103,-3464,352,1479,-132,-214,-91,66,152,108
1,109108,-3465,355,1486,-141,-222,-88,66,152,108
1,109114,-3465,355,1486,-141,-222,-88,66,152,108
1,109120,-3465,355,1486,-141,-222,-88,66,152,108
1,109126,-3465,355,1486,-141,-222,-88,66,152,108
1,109132,-3465,354,1483,-133,-219,-88,78,148,112
1,109138,-3465,354,1483,-133,-219,-88,78,148,112
1,109145,-3465,354,1483,-133,-219,-88,78,148,112
1,109151,-3463,354,1484,-139,-221,-83,78,148,112
1,109156,-3463,354,1484,-139,-221,-83,78,148,112
1,109162,-3463,354,1484,-139,-221,-83,78,148,112
1,109167,-3464,353,1482,-139,-221,-85,78,148,112
1,109173,-3464,353,1482,-139,-221,-85,78,148,112
1,109178,-3464,353,1482,-139,-221,-85,78,148,112
1,109184,-3464,353,1482,-139,-221,-85,78,148,112
1,109190,-3463,352,1477,-134,-221,-95,78,148,112
1,109196,-3463,352,1477,-134,-221,-95,78,148,112
1,109201,-3463,352,1477,-134,-221,-95,78,148,112
1,109206,-3464,351,1477,-142,-219,-95,78,148,112
1,109212,-3464,351,1477,-142,-219,-95,78,148,112
1,109218,-3464,351,1477,-142,-219,-95,78,148,112
1,109223,-3464,351,1477,-142,-219,-95,78,148,112
1,109230,-3464,351,1484,-142,-213,-86,78,148,112
1,109235,-3464,351,1484,-142,-213,-86,78,148,112
1,109241,-3464,351,1484,-142,-213,-86,78,148,112
1,109246,-3463,352,1485,-134,-219,-87,78,148,112
1,109253,-3463,352,1485,-134,-219,-87,78,148,112
1,109259,-3463,352,1485,-134,-219,-87,78,148,112
1,109265,-3463,352,1485,-134,-219,-87,78,148,112
1,109273,-3463,350,1490,-136,-223,-92,78,154,124
1,109279,-3463,350,1490,-136,-223,-92,78,154,124
1,109284,-3463,350,1490,-136,-223,-92,78,154,124
1,109290,-3467,354,1481,-137,-225,-89,78,154,124
1,109295,-3467,354,1481,-137,-225,-89,78,154,124
1,109301,-3467,354,1481,-137,-225,-89,78,154,124
1,109307,-3464,354,1484,-139,-216,-91,78,154,124
1,109313,-3464,354,1484,-139,-216,-91,78,154,124
1,109319,-3464,354,1484,-139,-216,-91,78,154,124
1,109324,-3464,354,1484,-139,-216,-91,78,154,124
1,109331,-3463,352,1487,-138,-210,-90,78,154,124
1,109336,-3463,352,1487,-138,-210,-90,78,154,124
1,109342,-3463,352,1487,-138,-210,-90,78,154,124
1,109347,-3469,354,1482,-134,-217,-86,78,154,124
1,109353,-3469,354,1482,-134,-217,-86,78,154,124
1,109359,-3469,354,1482,-134,-217,-86,78,154,124
1,109364,-3469,354,1482,-134,-217,-86,78,154,124
1,109369,-3464,352,1481,-136,-217,-87,78,154,124
1,109375,-3464,352,1481,-136,-217,-87,78,154,124
1,109380,-3464,352,1481,-136,-217,-87,78,154,124
1,109386,-3464,352,1481,-136,-217,-87,78,154,124
1,109392,-3466,351,1483,-137,-216,-84,75,149,117
1,109398,-3466,351,1483,-137,-216,-84,75,149,117
1,109404,-3466,351,1483,-137,-216,-84,75,149,117
1,109409,-3468,352,1481,-132,-217,-85,75,149,117
1,109415,-3468,352,1481,-132,-217,-85,75,149,117
1,109420,-3468,352,1481,-132,-217,-85,75,149,117
1,109426,-3468,352,1481,-132,-217,-85,75,149,117
1,109432,-3465,352,1478,-135,-215,-86,75,149,117
1,109437,-3465,352,1478,-135,-215,-86,75,149,117
1,109444,-3465,352,1478,-135,-215,-86,75,149,117
1,109449,-3464,353,1486,-141,-211,-95,75,149,117
1,109455,-3464,353,1486,-141,-211,-95,75,149,117
1,109461,-3464,353,1486,-141,-211,-95,75,149,117
1,109466,-3464,353,1486,-141,-211,-95,75,149,117
1,109472,-3463,352,1487,-140,-213,-94,75,149,117
1,109478,-3463,352,1487,-140,-213,-94,75,149,117
1,109485,-3463,352,1487,-140,-213,-94,75,149,117
1,109491,-3467,354,1478,-139,-216,-94,75,149,117
1,109496,-3467,354,1478,-139,-216,-94,75,149,117
1,109501,-3467,354,1478,-139,-216,-94,75,149,117
1,109507,-3465,353,1486,-141,-220,-97,72,148,116
1,109512,-3465,353,1486,-141,-220,-97,72,148,116
1,109517,-3465,353,1486,-141,-220,-97,72,148,116
1,109522,-3465,353,1486,-141,-220,-97,72,148,116
1,109527,-3464,351,1488,-140,-215,-92,72,148,116
1,109532,-3464,351,1488,-140,-215,-92,72,148,116
1,109537,-3464,351,1488,-140,-215,-92,72,148,116
1,109542,-3464,351,1488,-140,-215,-92,72,148,116
1,109547,-3463,355,1487,-142,-221,-92,72,148,116
1,109553,-3463,355,1487,-142,-221,-92,72,148,116
1,109558,-3463,355,1487,-142,-221,-92,72,148,116
1,109564,-3463,355,1487,-142,-221,-92,72,148,116
1,109571,-3464,349,1480,-139,-218,-82,72,148,116
1,109576,-3464,349,1480,-139,-218,-82,72,148,116
1,109582,-3464,349,1480,-139,-218,-82,72,148,116
1,109587,-3465,353,1484,-137,-213,-85,72,148,116
1,109593,-3465,353,1484,-137,-213,-85,72,148,116
1,109599,-3465,353,1484,-137,-213,-85,72,148,116
1,109605,-3465,353,1484,-137,-213,-85,72,148,116
1,109611,-3464,352,1483,-134,-218,-88,72,148,116
1,109617,-3464,352,1483,-134,-218,-88,72,148,116
1,109622,-3464,352,1483,-134,-218,-88,72,148,116
1,109627,-3464,352,1486,-138,-221,-86,70,144,118
1,109632,-3464,352,1486,-138,-221,-86,70,144,118
1,109637,-3464,352,1486,-138,-221,-86,70,144,118
1,109643,-3464,352,1486,-138,-221,-86,70,144,118
1,109648,-3466,353,1486,-141,-229,-100,70,144,118
1,109655,-3466,353,1486,-141,-229,-100,70,144,118
1,109660,-3466,353,1486,-141,-229,-100,70,144,118
1,109665,-3466,353,1486,-141,-229,-100,70,144,118
1,109670,-3462,354,1486,-141,-221,-90,70,144,118
1,109676,-3462,354,1486,-141,-221,-90,70,144,118
1,109682,-3462,354,1486,-141,-221,-90,70,144,118
1,109688,-3466,352,1482,-139,-212,-94,70,144,118
1,109693,-3466,352,1482,-139,-212,-94,70,144,118
1,109699,-3466,352,1482,-139,-212,-94,70,144,118
1,109705,-3466,352,1482,-139,-212,-94,70,144,118
1,109711,-3466,351,1486,-142,-219,-93,70,144,118
1,109717,-3466,351,1486,-142,-219,-93,70,144,118
1,109722,-3466,351,1486,-142,-219,-93,70,144,118
1,109727,-3462,354,1482,-142,-224,-91,70,144,118
1,109733,-3462,354,1482,-142,-224,-91,70,144,118
1,109739,-3462,354,1482,-142,-224,-91,70,144,118
1,109745,-3462,354,1482,-142,-224,-91,70,144,118
1,109750,-3464,352,1486,-144,-220,-93,75,151,121
1,109755,-3464,352,1486,-144,-220,-93,75,151,121
1,109761,-3464,352,1486,-144,-220,-93,75,151,121
1,109766,-3464,352,1486,-144,-220,-93,75,151,121
1,109771,-3465,351,1486,-139,-217,-98,75,151,121
1,109778,-3465,351,1486,-139,-217,-98,75,151,121
1,109784,-3465,351,1486,-139,-217,-98,75,151,121
1,109790,-3465,356,1484,-133,-221,-87,75,151,121
1,109796,-3465,356,1484,-133,-221,-87,75,151,121
1,109802,-3465,356,1484,-133,-221,-87,75,151,121
1,109808,-3462,359,1485,-139,-218,-90,75,151,121
1,109813,-3462,359,1485,-139,-218,-90,75,151,121
1,109819,-3462,359,1485,-139,-218,-90,75,151,121
1,109825,-3462,359,1485,-139,-218,-90,75,151,121
1,109830,-3463,354,1483,-143,-221,-85,75,151,121
1,109836,-3463,354,1483,-143,-221,-85,75,151,121
1,109841,-3463,354,1483,-143,-221,-85,75,151,121
1,109847,-3463,354,1482,-138,-219,-94,75,151,121
1,109853,-3463,354,1482,-138,-219,-94,75,151,121
1,109858,-3463,354,1482,-138,-219,-94,75,151,121
1,109863,-3463,354,1482,-138,-219,-94,75,151,121
1,109870,-3463,355,1484,-133,-218,-89,75,151,121
1,109875,-3463,355,1484,-133,-218,-89,75,151,121
1,109880,-3463,355,1484,-133,-218,-89,75,151,121
1,109886,-3463,355,1484,-133,-218,-89,75,151,121
1,109891,-3465,351,1487,-142,-216,-97,74,144,110
1,109896,-3465,351,1487,-142,-216,-97,74,144,110
1,109901,-3465,351,1487,-142,-216,-97,74,144,110
1,109907,-3465,352,1487,-141,-214,-94,74,144,110
1,109913,-3465,352,1487,-141,-214,-94,74,144,110
1,109919,-3465,352,1487,-141,-214,-94,74,144,110
1,109924,-3465,352,1487,-141,-214,-94,74,144,110
1,109929,-3463,353,1488,-143,-216,-92,74,144,110
1,109935,-3463,353,1488,-143,-216,-92,74,144,110
1,109940,-3463,353,1488,-143,-216,-92,74,144,110
1,109945,-3463,353,1488,-143,-216,-92,74,144,110
1,109952,-3467,354,1484,-144,-215,-90,74,144,110
1,109957,-3467,354,1484,-144,-215,-90,74,144,110
1,109963,-3467,354,1484,-144,-215,-90,74,144,110
1,109968,-3464,354,1483,-152,-222,-83,74,144,110
1,109973,-3464,354,1483,-152,-222,-83,74,144,110
1,109979,-3464,354,1483,-152,-222,-83,74,144,110
1,109984,-3464,354,1483,-152,-222,-83,74,144,110
1,109989,-3463,354,1479,-140,-224,-89,74,144,110
1,109996,-3463,354,1479,-140,-224,-89,74,144,110
1,110001,-3463,354,1479,-140,-224,-89,74,144,110
1,110006,-3463,354,1479,-140,-224,-89,74,144,110
1,110012,-3465,356,1484,-143,-216,-96,73,145,119
1,110017,-3465,356,1484,-143,-216,-96,73,145,119
1,110022,-3465,356,1484,-143,-216,-96,73,145,119
1,110028,-3467,355,1483,-140,-216,-92,73,145,119
1,110033,-3467,355,1483,-140,-216,-92,73,145,119
1,110039,-3467,355,1483,-140,-216,-92,73,145,119
1,110044,-3467,355,1483,-140,-216,-92,73,145,119
1,110050,-3466,354,1485,-141,-221,-91,73,145,119
1,110055,-3466,354,1485,-141,-221,-91,73,145,119
1,110060,-3466,354,1485,-141,-221,-91,73,145,119
1,110065,-3466,354,1485,-141,-221,-91,73,145,119
1,110071,-3464,351,1488,-142,-224,-95,73,145,119
1,110076,-3464,351,1488,-142,-224,-95,73,145,119
1,110082,-3464,351,1488,-142,-224,-95,73,145,119
1,110087,-3464,351,1488,-142,-224,-95,73,145,119
1,110093,-3466,352,1487,-145,-223,-93,73,145,119
1,110099,-3466,352,1487,-145,-223,-93,73,145,119
1,110104,-3466,352,1487,-145,-223,-93,73,145,119
1,110110,-3464,352,1488,-144,-225,-88,73,145,119
1,110116,-3464,352,1488,-144,-225,-88,73,145,119
1,110121,-3464,352,1488,-144,-225,-88,73,145,119
1,110128,-3465,354,1485,-139,-223,-92,75,149,119
1,110133,-3465,354,1485,-139,-223,-92,75,149,125
1,110139,-3465,354,1485,-139,-223,-92,75,149,125
1,110145,-3465,354,1485,-139,-223,-92,75,149,125
1,110150,-3466,354,1488,-137,-229,-91,75,149,125
1,110156,-3466,354,1488,-137,-229,-91,75,149,125
1,110162,-3466,354,1488,-137,-229,-91,75,149,125
1,110168,-3465,353,1479,-138,-226,-93,75,149,125
1,110174,-3465,353,1479,-138,-226,-93,75,149,125
1,110179,-3465,353,1479,-138,-226,-93,75,149,125
1,110183,-3465,353,1479,-138,-226,-93,75,149,125
1,110188,-3466,354,1483,-141,-222,-90,75,149,125
1,110193,-3466,354,1483,-141,-222,-90,75,149,125
1,110198,-3466,354,1483,-141,-222,-90,75,149,125
1,110204,-3466,354,1483,-141,-222,-90,75,149,125
1,110210,-3463,353,1483,-137,-215,-89,75,149,125
1,110214,-3463,353,1483,-137,-215,-89,75,149,125
1,110219,-3463,353,1483,-137,-215,-89,75,149,125
1,110225,-3463,353,1483,-137,-215,-89,75,149,125
1,110229,-3465,351,1484,-131,-226,-86,75,149,125
1,110234,-3465,351,1484,-131,-226,-86,75,149,125
1,110240,-3465,351,1484,-131,-226,-86,75,149,125
1,110245,-3465,351,1484,-131,-226,-86,75,149,125
1,110253,-3464,355,1481,-139,-221,-86,75,147,115
1,110259,-3464,355,1481,-139,-221,-86,75,147,115
1,110266,-3464,355,1481,-139,-221,-86,75,147,115
1,110271,-3465,356,1486,-136,-220,-83,75,147,115
1,110276,-3465,356,1486,-136,-220,-83,75,147,115
1,110282,-3465,356,1486,-136,-220,-83,75,147,115
1,110287,-3465,356,1486,-136,-220,-83,75,147,115
1,110292,-3462,351,1485,-135,-219,-84,75,147,115
1,110299,-3462,351,1485,-135,-219,-84,75,147,115
1,110304,-3462,351,1485,-135,-219,-84,75,147,115
1,110310,-3462,355,1482,-134,-223,-84,75,147,115
1,110315,-3462,355,1482,-134,-223,-84,75,147,115
1,110321,-3462,355,1482,-134,-223,-84,75,147,115
1,110326,-3462,355,1482,-134,-223,-84,75,147,115
1,110332,-3464,353,1481,-143,-222,-89,75,147,115
1,110339,-3464,353,1481,-143,-222,-89,75,147,115
1,110345,-3464,353,1481,-143,-222,-89,75,147,115
1,110350,-3464,353,1481,-142,-214,-97,75,147,115
1,110356,-3464,353,1481,-142,-214,-97,75,147,115
1,110361,-3464,353,1481,-142,-214,-97,75,147,115
1,110366,-3464,353,1481,-142,-214,-97,75,147,115
1,110371,-3465,353,1487,-139,-218,-90,76,150,110
1,110376,-3465,353,1487,-139,-218,-90,76,150,110
1,110381,-3465,353,1487,-139,-218,-90,76,150,110
1,110386,-3465,353,1487,-139,-218,-90,76,150,110
1,110391,-3465,353,1487,-139,-218,-90,76,150,110
1,110396,-3465,353,1487,-139,-218,-90,76,150,110
1,110400,-3465,353,1487,-139,-218,-90,76,150,110
1,110405,-3465,353,1487,-139,-218,-90,76,150,110
1,110410,-3465,354,1481,-137,-220,-92,76,150,110
1,110415,-3465,354,1481,-137,-220,-92,76,150,110
1,110420,-3465,354,1481,-137,-220,-92,76,150,110
1,110426,-3465,354,1481,-137,-220,-92,76,150,110
1,110431,-3466,353,1481,-144,-225,-87,76,150,110
1,110436,-3466,353,1481,-144,-225,-87,76,150,110
1,110440,-3466,353,1481,-144,-225,-87,76,150,110
1,110445,-3466,353,1481,-144,-225,-87,76,150,110
1,110450,-3466,353,1483,-141,-217,-91,76,150,110
1,110455,-3466,353,1483,-141,-217,-91,76,150,110
1,110460,-3466,353,1483,-141,-217,-91,76,150,110
1,110466,-3466,353,1483,-141,-217,-91,76,150,110
1,110470,-3463,354,1485,-139,-223,-95,76,150,110
1,110475,-3463,354,1485,-139,-223,-95,76,150,110
1,110480,-3463,354,1485,-139,-223,-95,76,150,110
1,110484,-3463,354,1485,-139,-223,-95,76,150,110
1,110489,-3465,353,1485,-134,-219,-90,76,162,112
1,110494,-3465,353,1485,-134,-219,-90,76,162,112
1,110498,-3465,353,1485,-134,-219,-90,76,162,112
1,110503,-3465,353,1485,-134,-219,-90,76,162,112
1,110508,-3464,351,1492,-137,-214,-91,76,162,112
1,110513,-3464,351,1492,-137,-214,-91,76,162,112
1,110518,-3464,351,1492,-137,-214,-91,76,162,112
1,110523,-3464,351,1492,-137,-214,-91,76,162,112
1,110527,-3464,351,1492,-137,-214,-91,76,162,112
1,110532,-3464,353,1482,-135,-218,-89,76,162,112
1,110537,-3464,353,1482,-135,-218,-89,76,162,112
1,110542,-3464,353,1482,-135,-218,-89,76,162,112
1,110547,-3464,353,1482,-135,-218,-89,76,162,112
1,110552,-3463,355,1487,-134,-221,-91,76,162,112
1,110559,-3463,355,1487,-134,-221,-91,76,162,112
1,110564,-3463,355,1487,-134,-221,-91,76,162,112
1,110569,-3463,353,1480,-132,-216,-95,76,162,112
1,110574,-3463,353,1480,-132,-216,-95,76,162,112
1,110578,-3463,353,1480,-132,-216,-95,76,162,112
1,110583,-3463,353,1480,-132,-216,-95,76,162,112
1,110588,-3464,354,1484,-137,-219,-100,76,162,112
1,110594,-3464,354,1484,-137,-219,-100,76,162,112
1,110599,-3464,354,1484,-137,-219,-100,76,162,112
1,110604,-3464,354,1484,-137,-219,-100,76,162,112
1,110610,-3467,352,1485,-138,-220,-94,76,162,112
1,110616,-3467,352,1485,-138,-220,-94,76,162,112
1,110621,-3467,352,1485,-138,-220,-94,76,162,112
1,110627,-3467,352,1485,-138,-220,-94,76,162,112
1,110633,-3464,354,1487,-144,-221,-92,74,154,114
1,110640,-3464,354,1487,-144,-221,-92,74,154,114
1,110646,-3464,354,1487,-144,-221,-92,74,154,114
1,110651,-3463,353,1481,-141,-219,-91,74,154,114
1,110657,-3463,353,1481,-141,-219,-91,74,154,114
1,110662,-3463,353,1481,-141,-219,-91,74,154,114
1,110667,-3463,353,1481,-141,-219,-91,74,154,114
1,110673,-3468,353,1484,-133,-218,-90,74,154,114
1,110679,-3468,353,1484,-133,-218,-90,74,154,114
1,110684,-3468,353,1484,-133,-218,-90,74,154,114
1,110690,-3465,352,1486,-132,-223,-94,74,154,114
1,110695,-3465,352,1486,-132,-223,-94,74,154,114
1,110701,-3465,352,1486,-132,-223,-94,74,154,114
1,110707,-3465,352,1486,-132,-223,-94,74,154,114
1,110713,-3467,352,1483,-140,-224,-93,74,154,114
1,110718,-3467,352,1483,-140,-224,-93,74,154,114
1,110725,-3467,352,1483,-140,-224,-93,74,154,114
1,110731,-3462,354,1490,-141,-224,-93,74,154,114
1,110737,-3462,354,1490,-141,-224,-93,74,154,114
1,110743,-3462,354,1490,-141,-224,-93,74,154,114
1,110747,-3462,354,1490,-141,-224,-93,74,154,114
1,110752,-3464,352,1493,-137,-219,-95,74,144,116
1,110757,-3464,352,1493,-137,-219,-95,74,144,116
1,110763,-3464,352,1493,-137,-219,-95,74,144,116
1,110767,-3464,352,1493,-137,-219,-95,74,144,116
1,110772,-3463,354,1485,-143,-217,-89,74,144,116
1,110777,-3463,354,1485,-143,-217,-89,74,144,116
1,110782,-3463,354,1485,-143,-217,-89,74,144,116
1,110787,-3463,354,1485,-143,-217,-89,74,144,116
1,110792,-3466,354,1482,-138,-219,-93,74,144,116
1,110797,-3466,354,1482,-138,-219,-93,74,144,116
1,110802,-3466,354,1482,-138,-219,-93,74,144,116
1,110809,-3464,353,1485,-129,-220,-82,74,144,116
1,110814,-3464,353,1485,-129,-220,-82,74,144,116
1,110820,-3464,353,1485,-129,-220,-82,74,144,116
1,110825,-3464,353,1485,-129,-220,-82,74,144,116
1,110830,-3466,353,1482,-135,-213,-85,74,144,116
1,110835,-3466,353,1482,-135,-213,-85,74,144,116
1,110840,-3466,353,1482,-135,-213,-85,74,144,116
1,110845,-3466,353,1482,-135,-213,-85,74,144,116
1,110852,-3467,357,1482,-142,-217,-91,74,144,116
1,110858,-3467,357,1482,-142,-217,-91,74,144,116
1,110863,-3467,357,1482,-142,-217,-91,74,144,116
1,110868,-3464,353,1489,-131,-220,-82,72,144,116
1,110873,-3464,353,1489,-131,-220,-82,72,144,118
1,110879,-3464,353,1489,-131,-220,-82,72,144,118
1,110884,-3464,353,1489,-131,-220,-82,72,144,118
1,110889,-3467,356,1487,-137,-221,-87,72,144,118
1,110895,-3467,356,1487,-137,-221,-87,72,144,118
1,110901,-3467,356,1487,-137,-221,-87,72,144,118
1,110906,-3467,356,1487,-137,-221,-87,72,144,118
1,110911,-3465,355,1486,-141,-228,-89,72,144,118
1,110917,-3465,355,1486,-141,-228,-89,72,144,118
1,110922,-3465,355,1486,-141,-228,-89,72,144,118
1,110928,-3463,353,1483,-143,-216,-91,72,144,118
1,110935,-3463,353,1483,-143,-216,-91,72,144,118
1,110941,-3463,353,1483,-143,-216,-91,72,144,118
1,110946,-3463,353,1483,-143,-216,-91,72,144,118
1,110951,-3464,351,1481,-135,-213,-93,72,144,118
1,110957,-3464,351,1481,-135,-213,-93,72,144,118
1,110962,-3464,351,1481,-135,-213,-93,72,144,118
1,110969,-3466,354,1486,-133,-217,-88,72,144,118
1,110976,-3466,354,1486,-133,-217,-88,72,144,118
1,110981,-3466,354,1486,-133,-217,-88,72,144,118
1,110987,-3466,354,1486,-133,-217,-88,72,144,118
1,110991,-3465,351,1487,-136,-224,-93,66,146,114
1,110997,-3465,351,1487,-136,-224,-93,66,146,114
1,111002,-3465,351,1487,-136,-224,-93,66,146,114
1,111006,-3465,351,1487,-136,-224,-93,66,146,114
1,111011,-3465,351,1487,-136,-224,-93,66,146,114
1,111016,-3465,351,1487,-136,-224,-93,66,146,114
1,111022,-3465,351,1487,-136,-224,-93,66,146,114
1,111027,-3465,351,1487,-136,-224,-93,66,146,114
1,111032,-3465,352,1477,-138,-222,-96,66,146,114
1,111037,-3465,352,1477,-138,-222,-96,66,146,114
1,111041,-3465,352,1477,-138,-222,-96,66,146,114
1,111047,-3465,352,1477,-138,-222,-96,66,146,114
1,111052,-3464,350,1485,-136,-218,-98,66,146,114
1,111058,-3464,350,1485,-136,-218,-98,66,146,114
1,111064,-3464,350,1485,-136,-218,-98,66,146,114
1,111070,-3463,354,1481,-136,-218,-95,66,146,114
1,111075,-3463,354,1481,-136,-218,-95,66,146,114
1,111081,-3463,354,1481,-136,-218,-95,66,146,114
1,111086,-3463,354,1481,-136,-218,-95,66,146,114
1,111091,-3465,353,1482,-135,-213,-88,66,146,114
1,111096,-3465,353,1482,-135,-213,-88,66,146,114
1,111102,-3465,353,1482,-135,-213,-88,66,146,114
1,111108,-3465,353,1482,-135,-213,-88,66,146,114
1,111114,-3466,352,1487,-139,-218,-90,71,151,109
1,111119,-3466,352,1487,-139,-218,-90,71,151,109
1,111125,-3466,352,1487,-139,-218,-90,71,151,109
1,111130,-3462,353,1485,-148,-224,-87,71,151,109
1,111136,-3462,353,1485,-148,-224,-87,71,151,109
1,111142,-3462,353,1485,-148,-224,-87,71,151,109
1,111148,-3462,353,1485,-148,-224,-87,71,151,109
1,111154,-3464,353,1480,-142,-220,-92,71,151,109
1,111159,-3464,353,1480,-142,-220,-92,71,151,109
1,111165,-3464,353,1480,-142,-220,-92,71,151,109
1,111170,-3464,353,1481,-140,-215,-100,71,151,109
1,111175,-3464,353,1481,-140,-215,-100,71,151,109
1,111181,-3464,353,1481,-140,-215,-100,71,151,109
1,111186,-3464,353,1481,-140,-215,-100,71,151,109
1,111192,-3464,353,1481,-140,-215,-100,71,151,109
1,111197,-3464,353,1481,-140,-215,-100,71,151,109
1,111202,-3464,353,1481,-140,-215,-100,71,151,109
1,111207,-3464,353,1481,-140,-215,-100,71,151,109
1,111212,-3466,355,1481,-143,-224,-97,71,151,109
1,111216,-3466,355,1481,-143,-224,-97,71,151,109
1,111221,-3466,355,1481,-143,-224,-97,71,151,109
1,111226,-3466,355,1481,-143,-224,-97,71,151,109
1,111232,-3463,353,1483,-136,-222,-93,71,151,109
1,111237,-3463,353,1483,-136,-222,-93,71,151,109
1,111242,-3463,353,1483,-136,-222,-93,71,151,109
1,111247,-3463,353,1483,-136,-222,-93,71,151,109
1,111252,-3465,353,1485,-137,-221,-87,77,153,117
1,111257,-3465,353,1485,-137,-221,-87,77,153,117
1,111261,-3465,353,1485,-137,-221,-87,77,153,117
1,111266,-3465,353,1485,-137,-221,-87,77,153,117
1,111271,-3463,354,1488,-136,-230,-91,77,153,117
1,111277,-3463,354,1488,-136,-230,-91,77,153,117
1,111283,-3463,354,1488,-136,-230,-91,77,153,117
1,111289,-3464,353,1482,-136,-219,-87,77,153,117
1,111294,-3464,353,1482,-136,-219,-87,77,153,117
1,111300,-3464,353,1482,-136,-219,-87,77,153,117
1,111304,-3464,353,1482,-136,-219,-87,77,153,117
1,111310,-3463,351,1486,-140,-220,-88,77,153,117
1,111316,-3463,351,1486,-140,-220,-88,77,153,117
1,111322,-3463,351,1486,-140,-220,-88,77,153,117
1,111327,-3463,351,1486,-140,-220,-88,77,153,117
1,111332,-3465,354,1479,-148,-218,-92,77,153,117
1,111338,-3465,354,1479,-148,-218,-92,77,153,117
1,111343,-3465,354,1479,-148,-218,-92,77,153,117
1,111348,-3465,354,1479,-148,-218,-92,77,153,117
1,111353,-3464,354,1483,-143,-217,-88,77,153,117
1,111358,-3464,354,1483,-143,-217,-88,77,153,117
1,111364,-3464,354,1483,-143,-217,-88,77,153,117
1,111369,-3463,352,1483,-136,-212,-96,64,153,117
1,111374,-3463,352,1483,-136,-212,-96,64,144,112
1,111380,-3463,352,1483,-136,-212,-96,64,144,112
1,111386,-3463,352,1483,-136,-212,-96,64,144,112
1,111393,-3463,355,1479,-140,-210,-86,64,144,112
1,111398,-3463,355,1479,-140,-210,-86,64,144,112
1,111405,-3463,355,1479,-140,-210,-86,64,144,112
1,111410,-3466,354,1487,-136,-215,-90,64,144,112
1,111415,-3466,354,1487,-136,-215,-90,64,144,112
1,111420,-3466,354,1487,-136,-215,-90,64,144,112
1,111425,-3466,354,1487,-136,-215,-90,64,144,112
1,111430,-3463,353,1483,-136,-219,-90,64,144,112
1,111434,-3463,353,1483,-136,-219,-90,64,144,112
1,111440,-3463,353,1483,-136,-219,-90,64,144,112
1,111447,-3463,353,1483,-136,-219,-90,64,144,112
1,111453,-3462,355,1485,-148,-218,-89,64,144,112
1,111458,-3462,355,1485,-148,-218,-89,64,144,112
1,111464,-3462,355,1485,-148,-218,-89,64,144,112
1,111469,-3466,353,1481,-138,-218,-87,64,144,112
1,111474,-3466,353,1481,-138,-218,-87,64,144,112
1,111478,-3466,353,1481,-138,-218,-87,64,144,112
1,111485,-3466,353,1481,-138,-218,-87,64,144,112
1,111491,-3465,355,1488,-142,-222,-87,71,151,119
1,111497,-3465,355,1488,-142,-222,-87,71,151,119
1,111502,-3465,355,1488,-142,-222,-87,71,151,119
1,111508,-3465,355,1488,-142,-222,-87,71,151,119
1,111513,-3465,353,1482,-145,-218,-83,71,151,119
1,111518,-3465,353,1482,-145,-218,-83,71,151,119
1,111524,-3465,353,1482,-145,-218,-83,71,151,119
1,111529,-3465,353,1484,-141,-226,-92,71,151,119
1,111535,-3465,353,1484,-141,-226,-92,71,151,119
1,111540,-3465,353,1484,-141,-226,-92,71,151,119
1,111546,-3465,353,1484,-141,-226,-92,71,151,119
1,111551,-3466,354,1483,-142,-228,-90,71,151,119
1,111557,-3466,354,1483,-142,-228,-90,71,151,119
1,111564,-3466,354,1483,-142,-228,-90,71,151,119
1,111569,-3465,353,1476,-136,-214,-87,71,151,119
1,111575,-3465,353,1476,-136,-214,-87,71,151,119
1,111581,-3465,353,1476,-136,-214,-87,71,151,119
1,111586,-3465,353,1476,-136,-214,-87,71,151,119
1,111592,-3463,354,1485,-142,-225,-88,71,151,119
1,111597,-3463,354,1485,-142,-225,-88,71,151,119
1,111602,-3463,354,1485,-142,-225,-88,71,151,119
1,111608,-3463,354,1485,-142,-225,-88,71,151,119
1,111613,-3465,353,1487,-136,-220,-93,78,148,118
1,111620,-3465,353,1487,-136,-220,-93,78,148,118
1,111626,-3465,353,1487,-136,-220,-93,78,148,118
1,111631,-3466,352,1485,-142,-221,-94,78,148,118
1,111636,-3466,352,1485,-142,-221,-94,78,148,118
1,111642,-3466,352,1485,-142,-221,-94,78,148,118
1,111647,-3466,352,1485,-142,-221,-94,78,148,118
1,111652,-3467,351,1487,-144,-222,-100,78,148,118
1,111659,-3467,351,1487,-144,-222,-100,78,148,118
1,111665,-3467,351,1487,-144,-222,-100,78,148,118
1,111670,-3463,353,1484,-145,-225,-87,78,148,118
1,111675,-3463,353,1484,-145,-225,-87,78,148,118
1,111680,-3463,353,1484,-145,-225,-87,78,148,118
1,111687,-3463,353,1484,-145,-225,-87,78,148,118
1,111692,-3467,351,1484,-147,-220,-88,78,148,118
1,111698,-3467,351,1484,-147,-220,-88,78,148,118
1,111704,-3467,351,1484,-147,-220,-88,78,148,118
1,111709,-3468,354,1484,-143,-209,-89,78,148,118
1,111714,-3468,354,1484,-143,-209,-89,78,148,118
1,111719,-3468,354,1484,-143,-209,-89,78,148,118
1,111724,-3468,354,1484,-143,-209,-89,78,148,118
1,111729,-3465,351,1486,-143,-219,-93,72,146,114
1,111733,-3465,351,1486,-143,-219,-93,72,146,114
1,111738,-3465,351,1486,-143,-219,-93,72,146,114
1,111744,-3465,351,1486,-143,-219,-93,72,146,114
1,111749,-3465,351,1486,-143,-219,-93,72,146,114
1,111754,-3466,352,1488,-144,-226,-97,72,146,114
1,111759,-3466,352,1488,-144,-226,-97,72,146,114
1,111764,-3466,352,1488,-144,-226,-97,72,146,114
1,111769,-3463,351,1485,-136,-221,-90,72,146,114
1,111774,-3463,351,1485,-136,-221,-90,72,146,114
1,111779,-3463,351,1485,-136,-221,-90,72,146,114
1,111784,-3463,351,1485,-136,-221,-90,72,146,114
1,111790,-3466,351,1486,-136,-218,-89,72,146,114
1,111795,-3466,351,1486,-136,-218,-89,72,146,114
1,111801,-3466,351,1486,-136,-218,-89,72,146,114
1,111806,-3466,351,1486,-136,-218,-89,72,146,114
1,111812,-3468,354,1480,-135,-218,-91,72,146,114
1,111817,-3468,354,1480,-135,-218,-91,72,146,114
1,111823,-3468,354,1480,-135,-218,-91,72,146,114
1,111828,-3468,354,1480,-135,-218,-91,72,146,114
1,111835,-3464,351,1480,-142,-215,-86,72,146,114
1,111841,-3464,351,1480,-142,-215,-86,72,146,114
1,111846,-3464,351,1480,-142,-215,-86,72,146,114
1,111852,-3462,354,1483,-137,-219,-88,69,153,111
1,111858,-3462,354,1483,-137,-219,-88,69,153,111
1,111863,-3462,354,1483,-137,-219,-88,69,153,111
1,111869,-3460,353,1486,-134,-218,-89,69,153,111
1,111875,-3460,353,1486,-134,-218,-89,69,153,111
1,111880,-3460,353,1486,-134,-218,-89,69,153,111
1,111885,-3460,353,1486,-134,-218,-89,69,153,111
1,111890,-3465,353,1482,-142,-221,-90,69,153,111
1,111895,-3465,353,1482,-142,-221,-90,69,153,111
1,111900,-3465,353,1482,-142,-221,-90,69,153,111
1,111904,-3465,353,1482,-142,-221,-90,69,153,111
1,111909,-3465,351,1485,-141,-228,-94,69,153,111
1,111915,-3465,351,1485,-141,-228,-94,69,153,111
1,111920,-3465,351,1485,-141,-228,-94,69,153,111
1,111925,-3465,351,1485,-141,-228,-94,69,153,111
1,111930,-3465,351,1485,-135,-212,-85,69,153,111
1,111934,-3465,351,1485,-135,-212,-85,69,153,111
1,111939,-3465,351,1485,-135,-212,-85,69,153,111
1,111944,-3465,351,1485,-135,-212,-85,69,153,111
1,111949,-3467,351,1485,-143,-222,-88,69,153,111
1,111954,-3467,351,1485,-143,-222,-88,69,153,111
1,111960,-3467,351,1485,-143,-222,-88,69,153,111
1,111965,-3467,351,1485,-143,-222,-88,69,153,111
1,111970,-3463,355,1485,-146,-224,-90,69,153,111
1,111976,-3463,355,1485,-146,-224,-90,69,153,111
1,111981,-3463,355,1485,-146,-224,-90,69,153,111
1,111986,-3463,355,1485,-146,-224,-90,69,153,111
1,111992,-3464,353,1484,-140,-224,-91,76,150,110
1,111998,-3464,353,1484,-140,-224,-91,76,150,110
1,112005,-3464,353,1484,-140,-224,-91,76,150,110
1,112010,-3463,356,1487,-137,-220,-88,76,150,110
1,112016,-3463,356,1487,-137,-220,-88,76,150,110
1,112023,-3463,356,1487,-137,-220,-88,76,150,110
1,112029,-3463,356,1487,-137,-220,-88,76,150,110
1,112034,-3464,353,1488,-140,-214,-90,76,150,110
1,112040,-3464,353,1488,-140,-214,-90,76,150,110
1,112047,-3464,353,1488,-140,-214,-90,76,150,110
1,112052,-3465,351,1482,-135,-230,-95,76,150,110
1,112058,-3465,351,1482,-135,-230,-95,76,150,110
1,112064,-3465,351,1482,-135,-230,-95,76,150,110
1,112069,-3462,350,1480,-135,-218,-90,76,150,110
1,112074,-3462,350,1480,-135,-218,-90,76,150,110
1,112080,-3462,350,1480,-135,-218,-90,76,150,110
1,112086,-3462,350,1480,-135,-218,-90,76,150,110
1,112092,-3463,352,1482,-141,-220,-96,76,150,110
1,112097,-3463,352,1482,-141,-220,-96,76,150,110
1,112102,-3463,352,1482,-141,-220,-96,76,150,110
1,112107,-3463,352,1482,-141,-220,-96,76,150,110
1,112113,-3464,352,1488,-135,-219,-89,70,150,116
1,112117,-3464,352,1488,-135,-219,-89,70,150,116
1,112123,-3464,352,1488,-135,-219,-89,70,150,116
1,112129,-3464,352,1488,-135,-219,-89,70,150,116
1,112134,-3467,350,1481,-136,-217,-87,70,150,116
1,112139,-3467,350,1481,-136,-217,-87,70,150,116
1,112145,-3467,350,1481,-136,-217,-87,70,150,116
1,112151,-3463,354,1481,-141,-216,-88,70,150,116
1,112157,-3463,354,1481,-141,-216,-88,70,150,116
1,112162,-3463,354,1481,-141,-216,-88,70,150,116
1,112167,-3463,354,1481,-141,-216,-88,70,150,116
1,112174,-3465,355,1485,-139,-218,-89,70,150,116
1,112179,-3465,355,1485,-139,-218,-89,70,150,116
1,112185,-3465,355,1485,-139,-218,-89,70,150,116
1,112191,-3464,356,1482,-149,-221,-87,70,150,116
1,112196,-3464,356,1482,-149,-221,-87,70,150,116
1,112202,-3464,356,1482,-149,-221,-87,70,150,116
1,112207,-3464,356,1482,-149,-221,-87,70,150,116
1,112212,-3464,351,1480,-141,-222,-88,70,150,116
1,112218,-3464,351,1480,-141,-222,-88,70,150,116
1,112223,-3464,351,1480,-141,-222,-88,70,150,116
1,112228,-3464,351,1480,-141,-222,-88,70,150,116
1,112233,-3463,353,1485,-140,-221,-92,76,152,116
1,112238,-3463,353,1485,-140,-221,-92,76,152,116
1,112242,-3463,353,1485,-140,-221,-92,76,152,116
1,112247,-3463,353,1485,-140,-221,-92,76,152,116
1,112252,-3465,355,1486,-133,-216,-97,76,152,116
1,112258,-3465,355,1486,-133,-216,-97,76,152,116
1,112262,-3465,355,1486,-133,-216,-97,76,152,116
1,112267,-3465,355,1486,-133,-216,-97,76,152,116
1,112271,-3465,355,1487,-136,-216,-94,76,152,116
1,112276,-3465,355,1487,-136,-216,-94,76,152,116
1,112280,-3465,355,1487,-136,-216,-94,76,152,116
1,112285,-3465,355,1487,-136,-216,-94,76,152,116
1,112290,-3465,355,1485,-137,-221,-95,76,152,116
1,112295,-3465,355,1485,-137,-221,-95,76,152,116
1,112300,-3465,355,1485,-137,-221,-95,76,152,116
1,112305,-3465,355,1485,-137,-221,-95,76,152,116
1,112310,-3466,355,1482,-129,-212,-94,76,152,116
1,112314,-3466,355,1482,-129,-212,-94,76,152,116
1,112319,-3466,355,1482,-129,-212,-94,76,152,116
1,112323,-3466,355,1482,-129,-212,-94,76,152,116
1,112328,-3466,355,1482,-129,-212,-94,76,152,116
1,112333,-3464,351,1486,-133,-213,-85,76,152,116
1,112338,-3464,351,1486,-133,-213,-85,76,152,116
1,112344,-3464,351,1486,-133,-213,-85,76,152,116
1,112349,-3464,351,1486,-133,-213,-85,76,152,116
1,112354,-3463,353,1487,-137,-218,-93,71,153,109
1,112359,-3463,353,1487,-137,-218,-93,71,153,109
1,112364,-3463,353,1487,-137,-218,-93,71,153,109
1,112369,-3463,353,1487,-137,-218,-93,71,153,109
1,112374,-3465,354,1484,-134,-225,-88,71,153,109
1,112378,-3465,354,1484,-134,-225,-88,71,153,109
1,112384,-3465,354,1484,-134,-225,-88,71,153,109
1,112389,-3465,354,1484,-134,-225,-88,71,153,109
1,112394,-3466,353,1482,-137,-218,-87,71,153,109
1,112399,-3466,353,1482,-137,-218,-87,71,153,109
1,112404,-3466,353,1482,-137,-218,-87,71,153,109
1,112409,-3466,353,1482,-137,-218,-87,71,153,109
1,112413,-3466,356,1485,-139,-221,-93,71,153,109
1,112418,-3466,356,1485,-139,-221,-93,71,153,109
1,112423,-3466,356,1485,-139,-221,-93,71,153,109
1,112429,-3466,356,1485,-139,-221,-93,71,153,109
1,112434,-3464,356,1482,-132,-216,-84,71,153,109
1,112438,-3464,356,1482,-132,-216,-84,71,153,109
1,112443,-3464,356,1482,-132,-216,-84,71,153,109
1,112448,-3464,356,1482,-132,-216,-84,71,153,109
1,112453,-3464,354,1480,-134,-217,-87,71,153,109
1,112458,-3464,354,1480,-134,-217,-87,71,153,109
1,112463,-3464,354,1480,-134,-217,-87,71,153,109
1,112468,-3464,354,1480,-134,-217,-87,71,153,109
1,112474,-3463,355,1484,-137,-216,-98,80,150,114
1,112478,-3463,355,1484,-137,-216,-98,80,150,114
1,112483,-3463,355,1484,-137,-216,-98,80,150,114
1,112487,-3463,355,1484,-137,-216,-98,80,150,114
1,112492,-3466,354,1485,-141,-220,-99,80,150,114
1,112497,-3466,354,1485,-141,-220,-99,80,150,114
1,112501,-3466,354,1485,-141,-220,-99,80,150,114
1,112506,-3466,354,1485,-141,-220,-99,80,150,114
1,112512,-3464,357,1485,-138,-218,-89,80,150,114
1,112517,-3464,357,1485,-138,-218,-89,80,150,114
1,112521,-3464,357,1485,-138,-218,-89,80,150,114
1,112526,-3464,357,1485,-138,-218,-89,80,150,114
1,112531,-3461,353,1480,-135,-216,-89,80,150,114
1,112536,-3461,353,1480,-135,-216,-89,80,150,114
1,112541,-3461,353,1480,-135,-216,-89,80,150,114
1,112546,-3461,353,1480,-135,-216,-89,80,150,114
1,112551,-3462,353,1486,-140,-223,-88,80,150,114
1,112558,-3462,353,1486,-140,-223,-88,80,150,114
1,112563,-3462,353,1486,-140,-223,-88,80,150,114
1,112568,-3462,353,1486,-140,-223,-88,80,150,114
1,112573,-3464,351,1487,-142,-223,-90,80,150,114
1,112579,-3464,351,1487,-142,-223,-90,80,150,114
1,112584,-3464,351,1487,-142,-223,-90,80,150,114
1,112588,-3464,351,1487,-142,-223,-90,80,150,114
1,112592,-3462,355,1483,-151,-220,-98,77,151,113
1,112598,-3462,355,1483,-151,-220,-98,77,151,113
1,112603,-3462,355,1483,-151,-220,-98,77,151,113
1,112608,-3462,355,1483,-151,-220,-98,77,151,113
1,112613,-3463,355,1484,-145,-221,-88,77,151,113
1,112617,-3463,355,1484,-145,-221,-88,77,151,113
1,112622,-3463,355,1484,-145,-221,-88,77,151,113
1,112628,-3463,355,1484,-145,-221,-88,77,151,113
1,112633,-3462,355,1484,-142,-219,-87,77,151,113
1,112638,-3462,355,1484,-142,-219,-87,77,151,113
1,112644,-3462,355,1484,-142,-219,-87,77,151,113
1,112648,-3462,355,1484,-142,-219,-87,77,151,113
1,112653,-3466,352,1485,-147,-216,-87,77,151,113
1,112658,-3466,352,1485,-147,-216,-87,77,151,113
1,112662,-3466,352,1485,-147,-216,-87,77,151,113
1,112668,-3466,352,1485,-147,-216,-87,77,151,113
1,112672,-3466,354,1484,-138,-216,-90,77,151,113
1,112677,-3466,354,1484,-138,-216,-90,77,151,113
1,112683,-3466,354,1484,-138,-216,-90,77,151,113
1,112688,-3466,354,1484,-138,-216,-90,77,151,113
1,112692,-3463,354,1480,-137,-227,-91,77,151,113
1,112697,-3463,354,1480,-137,-227,-91,77,151,113
1,112702,-3463,354,1480,-137,-227,-91,77,151,113
1,112707,-3463,354,1480,-137,-227,-91,77,151,113
1,112711,-3463,352,1488,-141,-221,-89,77,151,113
1,112716,-3463,352,1488,-141,-221,-89,77,151,113
1,112721,-3463,352,1488,-141,-221,-89,77,151,113
1,112727,-3463,352,1488,-141,-221,-89,77,151,113
1,112732,-3465,353,1483,-141,-215,-90,76,150,114
1,112736,-3465,353,1483,-141,-215,-90,76,150,114
1,112741,-3465,353,1483,-141,-215,-90,76,150,114
1,112746,-3465,353,1483,-141,-215,-90,76,150,114
1,112751,-3465,354,1486,-131,-219,-93,76,150,114
1,112756,-3465,354,1486,-131,-219,-93,76,150,114
1,112761,-3465,354,1486,-131,-219,-93,76,150,114
1,112766,-3465,354,1486,-131,-219,-93,76,150,114
1,112772,-3465,356,1481,-133,-220,-84,76,150,114
1,112776,-3465,356,1481,-133,-220,-84,76,150,114
1,112780,-3465,356,1481,-133,-220,-84,76,150,114
1,112787,-3465,356,1481,-133,-220,-84,76,150,114
1,112793,-3466,355,1483,-136,-217,-86,76,150,114
1,112798,-3466,355,1483,-136,-217,-86,76,150,114
1,112803,-3466,355,1483,-136,-217,-86,76,150,114
1,112808,-3466,355,1483,-136,-217,-86,76,150,114
1,112814,-3465,355,1482,-138,-227,-93,76,150,114
1,112819,-3465,355,1482,-138,-227,-93,76,150,114
1,112824,-3465,355,1482,-138,-227,-93,76,150,114
1,112829,-3465,355,1482,-138,-227,-93,76,150,114
1,112834,-3465,353,1481,-141,-223,-91,76,150,114
1,112840,-3465,353,1481,-141,-223,-91,76,150,114
1,112844,-3465,353,1481,-141,-223,-91,76,150,114
1,112849,-3465,353,1481,-141,-223,-91,76,150,114
1,112855,-3465,353,1482,-134,-219,-92,70,150,118
1,112859,-3465,353,1482,-134,-219,-92,70,150,118
1,112864,-3465,353,1482,-134,-219,-92,70,150,118
1,112869,-3465,353,1482,-134,-219,-92,70,150,118
1,112874,-3468,353,1480,-136,-214,-91,70,150,118
1,112878,-3468,353,1480,-136,-214,-91,70,150,118
1,112883,-3468,353,1480,-136,-214,-91,70,150,118
1,112888,-3468,353,1480,-136,-214,-91,70,150,118
1,112893,-3464,353,1486,-146,-219,-84,70,150,118
1,112899,-3464,353,1486,-146,-219,-84,70,150,118
1,112904,-3464,353,1486,-146,-219,-84,70,150,118
1,112909,-3464,353,1486,-146,-219,-84,70,150,118
1,112913,-3464,351,1486,-144,-219,-87,70,150,118
1,112917,-3464,351,1486,-144,-219,-87,70,150,118
1,112922,-3464,351,1486,-144,-219,-87,70,150,118
1,112927,-3464,351,1486,-144,-219,-87,70,150,118
1,112931,-3464,354,1484,-143,-216,-88,70,150,118
1,112936,-3464,354,1484,-143,-216,-88,70,150,118
1,112942,-3464,354,1484,-143,-216,-88,70,150,118
1,112947,-3464,354,1484,-143,-216,-88,70,150,118
1,112951,-3465,352,1485,-142,-222,-95,70,150,118
1,112955,-3465,352,1485,-142,-222,-95,70,150,118
1,112960,-3465,352,1485,-142,-222,-95,70,150,118
1,112965,-3465,352,1485,-142,-222,-95,70,150,118
1,112970,-3465,354,1489,-137,-220,-92,69,155,113
1,112975,-3465,354,1489,-137,-220,-92,69,155,113
1,112980,-3465,354,1489,-137,-220,-92,69,155,113
1,112986,-3465,354,1489,-137,-220,-92,69,155,113
1,112991,-3463,355,1486,-140,-223,-87,69,155,113
1,112995,-3463,355,1486,-140,-223,-87,69,155,113
1,113000,-3463,355,1486,-140,-223,-87,69,155,113
1,113005,-3463,355,1486,-140,-223,-87,69,155,113
1,113010,-3462,349,1484,-139,-221,-85,69,155,113
1,113015,-3462,349,1484,-139,-221,-85,69,155,113
1,113020,-3462,349,1484,-139,-221,-85,69,155,113
1,113026,-3462,349,1484,-139,-221,-85,69,155,113
1,113031,-3463,353,1485,-136,-219,-90,69,155,113
1,113036,-3463,353,1485,-136,-219,-90,69,155,113
1,113041,-3463,353,1485,-136,-219,-90,69,155,113
1,113045,-3463,353,1485,-136,-219,-90,69,155,113
1,113051,-3465,353,1480,-134,-217,-94,69,155,113
1,113056,-3465,353,1480,-134,-217,-94,69,155,113
1,113061,-3465,353,1480,-134,-217,-94,69,155,113
1,113067,-3465,353,1480,-134,-217,-94,69,155,113
1,113072,-3464,357,1479,-137,-220,-87,69,155,113
1,113077,-3464,357,1479,-137,-220,-87,69,155,113
1,113082,-3464,357,1479,-137,-220,-87,69,155,113
1,113087,-3464,357,1479,-137,-220,-87,69,155,113
1,113091,-3461,355,1480,-144,-223,-88,77,149,111
1,113096,-3461,355,1480,-144,-223,-88,77,149,111
1,113101,-3461,355,1480,-144,-223,-88,77,149,111
1,113106,-3461,355,1480,-144,-223,-88,77,149,111
1,113112,-3461,353,1484,-139,-221,-90,77,149,111
1,113117,-3461,353,1484,-139,-221,-90,77,149,111
1,113122,-3461,353,1484,-139,-221,-90,77,149,111
1,113127,-3461,353,1484,-139,-221,-90,77,149,111
1,113132,-3463,353,1484,-146,-218,-88,77,149,111
1,113137,-3463,353,1484,-146,-218,-88,77,149,111
1,113143,-3463,353,1484,-146,-218,-88,77,149,111
1,113148,-3463,353,1484,-146,-218,-88,77,149,111
1,113155,-3463,354,1486,-139,-215,-91,77,149,111
1,113161,-3463,354,1486,-139,-215,-91,77,149,111
1,113166,-3463,354,1486,-139,-215,-91,77,149,111
1,113172,-3464,353,1483,-140,-224,-95,77,149,111
1,113178,-3464,353,1483,-140,-224,-95,77,149,111
1,113183,-3464,353,1483,-140,-224,-95,77,149,111
1,113189,-3464,353,1483,-140,-224,-95,77,149,111
1,113195,-3465,352,1482,-136,-222,-91,77,149,111
1,113200,-3465,352,1482,-136,-222,-91,77,149,111
1,113205,-3465,352,1482,-136,-222,-91,77,149,111
1,113210,-3465,352,1482,-136,-222,-91,77,149,111
1,113215,-3464,353,1483,-130,-223,-82,74,146,116
1,113219,-3464,353,1483,-130,-223,-82,74,146,116
1,113225,-3464,353,1483,-130,-223,-82,74,146,116
1,113229,-3464,353,1483,-130,-223,-82,74,146,116
1,113234,-3465,355,1481,-137,-220,-89,74,146,116
1,113240,-3465,355,1481,-137,-220,-89,74,146,116
1,113245,-3465,355,1481,-137,-220,-89,74,146,116
1,113249,-3465,355,1481,-137,-220,-89,74,146,116
1,113254,-3466,352,1482,-135,-217,-94,74,146,116
1,113258,-3466,352,1482,-135,-217,-94,74,146,116
1,113263,-3466,352,1482,-135,-217,-94,74,146,116
1,113267,-3466,352,1482,-135,-217,-94,74,146,116
1,113272,-3464,355,1478,-140,-217,-94,74,146,116
1,113276,-3464,355,1478,-140,-217,-94,74,146,116
1,113282,-3464,355,1478,-140,-217,-94,74,146,116
1,113287,-3464,355,1478,-140,-217,-94,74,146,116
1,113292,-3462,353,1488,-139,-218,-82,74,146,116
1,113297,-3462,353,1488,-139,-218,-82,74,146,116
1,113302,-3462,353,1488,-139,-218,-82,74,146,116
1,113307,-3462,353,1488,-139,-218,-82,74,146,116
1,113312,-3467,351,1483,-144,-222,-95,74,146,116
1,113316,-3467,351,1483,-144,-222,-95,74,146,116
1,113321,-3467,351,1483,-144,-222,-95,74,146,116
1,113326,-3467,351,1483,-144,-222,-95,74,146,116
1,113331,-3465,353,1483,-141,-218,-90,74,146,116
1,113336,-3465,353,1483,-141,-218,-90,74,146,116
1,113341,-3465,353,1483,-141,-218,-90,74,146,116
1,113345,-3465,353,1483,-141,-218,-90,74,146,116
1,113350,-3465,353,1483,-141,-218,-90,74,146,116
1,113355,-3465,353,1483,-141,-218,-90,76,150,118
1,113360,-3465,353,1483,-141,-218,-90,76,150,118
1,113366,-3465,353,1483,-141,-218,-90,76,150,118
1,113370,-3465,353,1483,-141,-218,-90,76,150,118
1,113375,-3464,352,1484,-146,-223,-93,76,150,118
1,113381,-3464,352,1484,-146,-223,-93,76,150,118
1,113385,-3464,352,1484,-146,-223,-93,76,150,118
1,113390,-3464,352,1484,-146,-223,-93,76,150,118
1,113394,-3463,350,1484,-145,-226,-88,76,150,118
1,113399,-3463,350,1484,-145,-226,-88,76,150,118
1,113404,-3463,350,1484,-145,-226,-88,76,150,118
1,113410,-3463,350,1484,-145,-226,-88,76,150,118
1,113414,-3464,351,1481,-135,-218,-86,76,150,118
1,113419,-3464,351,1481,-135,-218,-86,76,150,118
1,113424,-3464,351,1481,-135,-218,-86,76,150,118
1,113429,-3464,351,1481,-135,-218,-86,76,150,118
1,113434,-3463,354,1484,-136,-219,-94,76,150,118
1,113438,-3463,354,1484,-136,-219,-94,76,150,118
1,113443,-3463,354,1484,-136,-219,-94,76,150,118
1,113448,-3463,354,1484,-136,-219,-94,76,150,118
1,113454,-3466,356,1478,-140,-221,-89,76,150,118
1,113459,-3466,356,1478,-140,-221,-89,76,150,118
1,113464,-3466,356,1478,-140,-221,-89,76,150,118
1,113469,-3466,356,1478,-140,-221,-89,76,150,118
1,113474,-3466,353,1486,-142,-214,-86,67,139,113
1,113479,-3466,353,1486,-142,-214,-86,67,139,113
1,113484,-3466,353,1486,-142,-214,-86,67,139,113
1,113488,-3466,353,1486,-142,-214,-86,67,139,113
1,113494,-3469,353,1488,-143,-217,-89,67,139,113
1,113499,-3469,353,1488,-143,-217,-89,67,139,113
1,113504,-3469,353,1488,-143,-217,-89,67,139,113
1,113508,-3469,353,1488,-143,-217,-89,67,139,113
1,113513,-3462,355,1485,-139,-216,-83,67,139,113
1,113518,-3462,355,1485,-139,-216,-83,67,139,113
1,113523,-3462,355,1485,-139,-216,-83,67,139,113
1,113528,-3462,355,1485,-139,-216,-83,67,139,113
1,113533,-3463,352,1482,-135,-218,-89,67,139,113
1,113539,-3463,352,1482,-135,-218,-89,67,139,113
1,113544,-3463,352,1482,-135,-218,-89,67,139,113
1,113549,-3463,352,1482,-135,-218,-89,67,139,113
1,113554,-3463,355,1480,-148,-216,-88,67,139,113
1,113559,-3463,355,1480,-148,-216,-88,67,139,113
1,113564,-3463,355,1480,-148,-216,-88,67,139,113
1,113568,-3463,355,1480,-148,-216,-88,67,139,113
1,113573,-3464,353,1484,-132,-221,-91,67,139,113
1,113579,-3464,353,1484,-132,-221,-91,67,139,113
1,113584,-3464,353,1484,-132,-221,-91,67,139,113
1,113589,-3464,353,1484,-132,-221,-91,67,139,113
1,113594,-3463,354,1484,-139,-227,-93,74,160,116
1,113598,-3463,354,1484,-139,-227,-93,74,160,116
1,113602,-3463,354,1484,-139,-227,-93,74,160,116
1,113607,-3463,354,1484,-139,-227,-93,74,160,116
1,113612,-3463,354,1488,-140,-221,-97,74,160,116
1,113616,-3463,354,1488,-140,-221,-97,74,160,116
1,113622,-3463,354,1488,-140,-221,-97,74,160,116
1,113627,-3463,354,1488,-140,-221,-97,74,160,116
1,113632,-3464,353,1484,-136,-215,-99,74,160,116
1,113637,-3464,353,1484,-136,-215,-99,74,160,116
1,113641,-3464,353,1484,-136,-215,-99,74,160,116
1,113646,-3464,353,1484,-136,-215,-99,74,160,116
1,113651,-3466,352,1485,-141,-222,-92,74,160,116
1,113656,-3466,352,1485,-141,-222,-92,74,160,116
1,113661,-3466,352,1485,-141,-222,-92,74,160,116
1,113666,-3466,352,1485,-141,-222,-92,74,160,116
1,113671,-3463,354,1478,-140,-221,-85,74,160,116
1,113676,-3463,354,1478,-140,-221,-85,74,160,116
1,113681,-3463,354,1478,-140,-221,-85,74,160,116
1,113686,-3463,354,1478,-140,-221,-85,74,160,116
1,113691,-3466,353,1479,-147,-225,-87,74,160,116
1,113696,-3466,353,1479,-147,-225,-87,74,160,116
1,113700,-3466,353,1479,-147,-225,-87,74,160,116
1,113705,-3466,353,1479,-147,-225,-87,74,160,116
1,113711,-3466,353,1479,-147,-225,-87,74,160,116
1,113716,-3463,354,1486,-140,-216,-89,73,151,113
1,113721,-3463,354,1486,-140,-216,-89,73,151,113
1,113726,-3463,354,1486,-140,-216,-89,73,151,113
1,113730,-3463,354,1486,-140,-216,-89,73,151,113
1,113735,-3467,354,1488,-136,-222,-90,73,151,113
1,113739,-3467,354,1488,-136,-222,-90,73,151,113
1,113744,-3467,354,1488,-136,-222,-90,73,151,113
1,113750,-3467,354,1488,-136,-222,-90,73,151,113
1,113754,-3467,350,1480,-133,-226,-94,73,151,113
1,113759,-3467,350,1480,-133,-226,-94,73,151,113
1,113764,-3467,350,1480,-133,-226,-94,73,151,113
1,113768,-3467,350,1480,-133,-226,-94,73,151,113
1,113773,-3463,353,1482,-138,-226,-92,73,151,113
1,113778,-3463,353,1482,-138,-226,-92,73,151,113
1,113783,-3463,353,1482,-138,-226,-92,73,151,113
1,113787,-3463,353,1482,-138,-226,-92,73,151,113
1,113793,-3462,355,1482,-139,-216,-95,73,151,113
1,113798,-3462,355,1482,-139,-216,-95,73,151,113
1,113803,-3462,355,1482,-139,-216,-95,73,151,113
1,113807,-3462,355,1482,-139,-216,-95,73,151,113
1,113812,-3461,355,1485,-142,-221,-88,73,151,113
1,113816,-3461,355,1485,-142,-221,-88,73,151,113
1,113821,-3461,355,1485,-142,-221,-88,73,151,113
1,113825,-3461,355,1485,-142,-221,-88,73,151,113
1,113830,-3461,355,1485,-142,-221,-88,73,151,113
1,113836,-3461,356,1487,-141,-213,-78,78,146,116
1,113841,-3461,356,1487,-141,-213,-78,78,146,116
1,113846,-3461,356,1487,-141,-213,-78,78,146,116
1,113850,-3461,356,1487,-141,-213,-78,78,146,116
1,113855,-3459,353,1494,-152,-207,-83,78,146,116
1,113861,-3459,353,1494,-152,-207,-83,78,146,116
1,113866,-3459,353,1494,-152,-207,-83,78,146,116
1,113870,-3459,353,1494,-152,-207,-83,78,146,116
1,113875,-3461,351,1487,-155,-208,-86,78,146,116
1,113881,-3461,351,1487,-155,-208,-86,78,146,116
1,113886,-3461,351,1487,-155,-208,-86,78,146,116
1,113892,-3469,351,1487,-141,-215,-78,78,146,116
1,113897,-3469,351,1487,-141,-215,-78,78,146,116
1,113902,-3469,351,1487,-141,-215,-78,78,146,116
1,113907,-3469,351,1487,-141,-215,-78,78,146,116
1,113912,-3476,351,1486,-141,-218,-88,78,146,116
1,113916,-3476,351,1486,-141,-218,-88,78,146,116
1,113921,-3476,351,1486,-141,-218,-88,78,146,116
1,113926,-3476,351,1486,-141,-218,-88,78,146,116
1,113931,-3476,351,1486,-141,-218,-88,78,146,116
1,113936,-3469,348,1480,-144,-219,-95,78,146,116
1,113941,-3469,348,1480,-144,-219,-95,78,146,116
1,113945,-3469,348,1480,-144,-219,-95,78,146,116
1,113950,-3469,348,1480,-144,-219,-95,78,146,116
1,113956,-3460,351,1482,-141,-220,-88,67,145,115
1,113960,-3460,351,1482,-141,-220,-88,67,145,115
1,113965,-3460,351,1482,-141,-220,-88,67,145,115
1,113971,-3460,351,1482,-141,-220,-88,67,145,115
1,113975,-3459,360,1478,-145,-219,-81,67,145,115
1,113980,-3459,360,1478,-145,-219,-81,67,145,115
1,113985,-3459,360,1478,-145,-219,-81,67,145,115
1,113990,-3459,360,1478,-145,-219,-81,67,145,115
1,113994,-3463,360,1486,-139,-220,-89,67,145,115
1,113999,-3463,360,1486,-139,-220,-89,67,145,115
1,114003,-3463,360,1486,-139,-220,-89,67,145,115
1,114009,-3463,360,1486,-139,-220,-89,67,145,115
1,114014,-3463,356,1485,-136,-219,-107,67,145,115
1,114020,-3463,356,1485,-136,-219,-107,67,145,115
1,114024,-3463,356,1485,-136,-219,-107,67,145,115
1,114030,-3463,356,1485,-136,-219,-107,67,145,115
1,114035,-3466,351,1487,-140,-221,-103,67,145,115
1,114041,-3466,351,1487,-140,-221,-103,67,145,115
1,114046,-3466,351,1487,-140,-221,-103,67,145,115
1,114053,-3471,350,1482,-146,-220,-89,67,145,115
1,114058,-3471,350,1482,-146,-220,-89,67,145,115
1,114063,-3471,350,1482,-146,-220,-89,67,145,115
1,114068,-3471,350,1482,-146,-220,-89,67,145,115
1,114072,-3470,351,1480,-137,-222,-90,67,145,115
1,114077,-3470,351,1480,-137,-222,-90,67,145,115
1,114082,-3470,351,1480,-137,-222,-90,67,145,115
1,114087,-3470,351,1480,-137,-222,-90,67,145,115
1,114093,-3460,352,1484,-138,-225,-86,71,141,123
1,114098,-3460,352,1484,-138,-225,-86,71,141,123
1,114103,-3460,352,1484,-138,-225,-86,71,141,123
1,114108,-3460,352,1484,-138,-225,-86,71,141,123
1,114112,-3456,353,1486,-144,-225,-94,71,141,123
1,114118,-3456,353,1486,-144,-225,-94,71,141,123
1,114123,-3456,353,1486,-144,-225,-94,71,141,123
1,114127,-3456,353,1486,-144,-225,-94,71,141,123
1,114132,-3463,355,1486,-137,-221,-91,71,141,123
1,114138,-3463,355,1486,-137,-221,-91,71,141,123
1,114143,-3463,355,1486,-137,-221,-91,71,141,123
1,114147,-3463,355,1486,-137,-221,-91,71,141,123
1,114152,-3470,356,1488,-135,-218,-91,71,141,123
1,114156,-3470,356,1488,-135,-218,-91,71,141,123
1,114162,-3470,356,1488,-135,-218,-91,71,141,123
1,114167,-3470,356,1488,-135,-218,-91,71,141,123
1,114172,-3469,354,1484,-131,-220,-92,71,141,123
1,114178,-3469,354,1484,-131,-220,-92,71,141,123
1,114183,-3469,354,1484,-131,-220,-92,71,141,123
1,114188,-3469,354,1484,-131,-220,-92,71,141,123
1,114193,-3462,346,1488,-137,-228,-92,71,141,123
1,114198,-3462,346,1488,-137,-228,-92,71,141,123
1,114202,-3462,346,1488,-137,-228,-92,71,141,123
1,114207,-3462,346,1488,-137,-228,-92,71,141,123
1,114212,-3459,352,1487,-136,-226,-91,74,146,114
1,114217,-3459,352,1487,-136,-226,-91,74,146,114
1,114222,-3459,352,1487,-136,-226,-91,74,146,114
1,114227,-3459,352,1487,-136,-226,-91,74,146,114
1,114232,-3462,359,1488,-142,-225,-89,74,146,114
1,114237,-3462,359,1488,-142,-225,-89,74,146,114
1,114242,-3462,359,1488,-142,-225,-89,74,146,114
1,114246,-3462,359,1488,-142,-225,-89,74,146,114
1,114252,-3463,359,1483,-138,-218,-86,74,146,114
1,114256,-3463,359,1483,-138,-218,-86,74,146,114
1,114262,-3463,359,1483,-138,-218,-86,74,146,114
1,114267,-3463,359,1483,-138,-218,-86,74,146,114
1,114271,-3463,359,1483,-138,-218,-86,74,146,114
1,114276,-3467,354,1480,-132,-221,-94,74,146,114
1,114281,-3467,354,1480,-132,-221,-94,74,146,114
1,114286,-3467,354,1480,-132,-221,-94,74,146,114
1,114291,-3467,354,1480,-132,-221,-94,74,146,114
1,114296,-3467,352,1480,-128,-219,-89,74,146,114
1,114300,-3467,352,1480,-128,-219,-89,74,146,114
1,114306,-3467,352,1480,-128,-219,-89,74,146,114
1,114311,-3467,352,1480,-128,-219,-89,74,146,114
1,114316,-3468,351,1482,-129,-225,-79,74,146,114
1,114321,-3468,351,1482,-129,-225,-79,74,146,114
1,114325,-3468,351,1482,-129,-225,-79,74,146,114
1,114330,-3468,351,1482,-129,-225,-79,74,146,114
1,114335,-3463,353,1491,-129,-224,-87,72,148,124
1,114340,-3463,353,1491,-129,-224,-87,72,148,124
1,114345,-3463,353,1491,-129,-224,-87,72,148,124
1,114350,-3463,353,1491,-129,-224,-87,72,148,124
1,114355,-3456,352,1487,-131,-222,-88,72,148,124
1,114359,-3456,352,1487,-131,-222,-88,72,148,124
1,114364,-3456,352,1487,-131,-222,-88,72,148,124
1,114369,-3456,352,1487,-131,-222,-88,72,148,124
1,114375,-3459,350,1489,-135,-222,-94,72,148,124
1,114379,-3459,350,1489,-135,-222,-94,72,148,124
1,114384,-3459,350,1489,-135,-222,-94,72,148,124
1,114390,-3459,350,1489,-135,-222,-94,72,148,124
1,114395,-3469,360,1484,-138,-216,-88,72,148,124
1,114400,-3469,360,1484,-138,-216,-88,72,148,124
1,114405,-3469,360,1484,-138,-216,-88,72,148,124
1,114410,-3469,360,1484,-138,-216,-88,72,148,124
1,114415,-3467,356,1488,-136,-218,-93,72,148,124
1,114420,-3467,356,1488,-136,-218,-93,72,148,124
1,114424,-3467,356,1488,-136,-218,-93,72,148,124
1,114428,-3467,356,1488,-136,-218,-93,72,148,124
1,114434,-3466,353,1482,-139,-220,-95,72,148,124
1,114439,-3466,353,1482,-139,-220,-95,72,148,124
1,114443,-3466,353,1482,-139,-220,-95,72,148,124
1,114448,-3466,353,1482,-139,-220,-95,72,148,124
1,114452,-3459,348,1482,-146,-219,-92,62,152,118
1,114457,-3459,348,1482,-146,-219,-92,62,152,118
1,114462,-3459,348,1482,-146,-219,-92,62,152,118
1,114467,-3459,348,1482,-146,-219,-92,62,152,118
1,114472,-3463,347,1482,-140,-224,-84,62,152,118
1,114478,-3463,347,1482,-140,-224,-84,62,152,118
1,114483,-3463,347,1482,-140,-224,-84,62,152,118
1,114488,-3463,347,1482,-140,-224,-84,62,152,118
1,114493,-3463,352,1487,-138,-218,-89,62,152,118
1,114498,-3463,352,1487,-138,-218,-89,62,152,118
1,114503,-3463,352,1487,-138,-218,-89,62,152,118
1,114508,-3463,352,1487,-138,-218,-89,62,152,118
1,114512,-3466,356,1485,-136,-221,-90,62,152,118
1,114518,-3466,356,1485,-136,-221,-90,62,152,118
1,114523,-3466,356,1485,-136,-221,-90,62,152,118
1,114528,-3466,356,1485,-136,-221,-90,62,152,118
1,114533,-3466,352,1483,-137,-215,-85,62,152,118
1,114538,-3466,352,1483,-137,-215,-85,62,152,118
1,114542,-3466,352,1483,-137,-215,-85,62,152,118
1,114547,-3466,352,1483,-137,-215,-85,62,152,118
1,114552,-3467,357,1480,-138,-220,-77,62,152,118
1,114557,-3467,357,1480,-138,-220,-77,62,152,118
1,114563,-3467,357,1480,-138,-220,-77,62,152,118
1,114568,-3467,357,1480,-138,-220,-77,62,152,118
1,114573,-3465,357,1479,-139,-221,-76,73,149,115
1,114578,-3465,357,1479,-139,-221,-76,73,149,115
1,114583,-3465,357,1479,-139,-221,-76,73,149,115
1,114588,-3465,357,1479,-139,-221,-76,73,149,115
1,114594,-3465,349,1485,-140,-216,-93,73,149,115
1,114599,-3465,349,1485,-140,-216,-93,73,149,115
1,114606,-3465,349,1485,-140,-216,-93,73,149,115
1,114612,-3465,349,1485,-140,-216,-93,73,149,115
1,114617,-3459,349,1487,-134,-224,-93,73,149,115
1,114623,-3459,349,1487,-134,-224,-93,73,149,115
1,114629,-3459,349,1487,-134,-224,-93,73,149,115
1,114634,-3464,351,1479,-142,-228,-90,73,149,115
1,114640,-3464,351,1479,-142,-228,-90,73,149,115
1,114646,-3464,351,1479,-142,-228,-90,73,149,115
1,114651,-3464,351,1479,-142,-228,-90,73,149,115
1,114657,-3468,354,1486,-146,-218,-82,73,149,115
1,114662,-3468,354,1486,-146,-218,-82,73,149,115
1,114668,-3468,354,1486,-146,-218,-82,73,149,115
1,114673,-3469,356,1485,-138,-225,-95,73,149,115
1,114679,-3469,356,1485,-138,-225,-95,73,149,115
1,114684,-3469,356,1485,-138,-225,-95,73,149,115
1,114690,-3469,356,1485,-138,-225,-95,73,149,115
1,114695,-3464,354,1483,-141,-225,-93,73,149,115
1,114701,-3464,354,1483,-141,-225,-93,73,149,115
1,114706,-3464,354,1483,-141,-225,-93,73,149,115
1,114711,-3464,354,1483,-141,-225,-93,73,149,115
1,114715,-3462,351,1485,-139,-226,-90,70,150,112
1,114720,-3462,351,1485,-139,-226,-90,70,150,112
1,114725,-3462,351,1485,-139,-226,-90,70,150,112
1,114729,-3462,351,1485,-139,-226,-90,70,150,112
1,114735,-3464,352,1490,-139,-221,-88,70,150,112
1,114740,-3464,352,1490,-139,-221,-88,70,150,112
1,114745,-3464,352,1490,-139,-221,-88,70,150,112
1,114750,-3464,352,1490,-139,-221,-88,70,150,112
1,114755,-3464,350,1487,-142,-220,-88,70,150,112
1,114759,-3464,350,1487,-142,-220,-88,70,150,112
1,114765,-3464,350,1487,-142,-220,-88,70,150,112
1,114770,-3464,350,1487,-142,-220,-88,70,150,112
1,114775,-3464,351,1487,-141,-219,-91,70,150,112
1,114779,-3464,351,1487,-141,-219,-91,70,150,112
1,114784,-3464,351,1487,-141,-219,-91,70,150,112
1,114789,-3464,351,1487,-141,-219,-91,70,150,112
1,114794,-3465,356,1488,-138,-218,-85,70,150,112
1,114799,-3465,356,1488,-138,-218,-85,70,150,112
1,114805,-3465,356,1488,-138,-218,-85,70,150,112
1,114809,-3465,356,1488,-138,-218,-85,70,150,112
1,114814,-3463,356,1483,-146,-219,-93,70,150,112
1,114819,-3463,356,1483,-146,-219,-93,70,150,112
1,114824,-3463,356,1483,-146,-219,-93,70,150,112
1,114829,-3463,356,1483,-146,-219,-93,70,150,112
1,114833,-3466,354,1492,-139,-214,-88,75,143,111
1,114838,-3466,354,1492,-139,-214,-88,75,143,111
1,114843,-3466,354,1492,-139,-214,-88,75,143,111
1,114847,-3466,354,1492,-139,-214,-88,75,143,111
1,114852,-3462,347,1489,-138,-216,-87,75,143,111
1,114857,-3462,347,1489,-138,-216,-87,75,143,111
1,114863,-3462,347,1489,-138,-216,-87,75,143,111
1,114867,-3462,347,1489,-138,-216,-87,75,143,111
1,114872,-3469,349,1482,-139,-227,-88,75,143,111
1,114877,-3469,349,1482,-139,-227,-88,75,143,111
1,114881,-3469,349,1482,-139,-227,-88,75,143,111
1,114886,-3469,349,1482,-139,-227,-88,75,143,111
1,114891,-3469,349,1482,-139,-227,-88,75,143,111
1,114895,-3472,353,1484,-141,-212,-90,75,143,111
1,114899,-3472,353,1484,-141,-212,-90,75,143,111
1,114905,-3472,353,1484,-141,-212,-90,75,143,111
1,114909,-3472,353,1484,-141,-212,-90,75,143,111
1,114915,-3467,357,1477,-144,-223,-88,75,143,111
1,114919,-3467,357,1477,-144,-223,-88,75,143,111
1,114924,-3467,357,1477,-144,-223,-88,75,143,111
1,114929,-3467,357,1477,-144,-223,-88,75,143,111
1,114934,-3463,356,1481,-138,-218,-92,75,143,111
1,114939,-3463,356,1481,-138,-218,-92,75,143,111
1,114945,-3463,356,1481,-138,-218,-92,75,143,111
1,114949,-3463,356,1481,-138,-218,-92,75,143,111
1,114954,-3462,354,1479,-143,-215,-95,66,156,116
1,114958,-3462,354,1479,-143,-215,-95,66,156,116
1,114963,-3462,354,1479,-143,-215,-95,66,156,116
1,114968,-3462,354,1479,-143,-215,-95,66,156,116
1,114973,-3461,355,1487,-145,-222,-90,66,156,116
1,114978,-3461,355,1487,-145,-222,-90,66,156,116
1,114982,-3461,355,1487,-145,-222,-90,66,156,116
1,114988,-3461,355,1487,-145,-222,-90,66,156,116
1,114993,-3467,352,1484,-143,-221,-92,66,156,116
1,114997,-3467,352,1484,-143,-221,-92,66,156,116
1,115003,-3467,352,1484,-143,-221,-92,66,156,116
1,115007,-3467,352,1484,-143,-221,-92,66,156,116
1,115012,-3467,348,1482,-139,-222,-93,66,156,116
1,115017,-3467,348,1482,-139,-222,-93,66,156,116
1,115022,-3467,348,1482,-139,-222,-93,66,156,116
1,115027,-3467,348,1482,-139,-222,-93,66,156,116
1,115032,-3467,348,1482,-139,-222,-93,66,156,116
1,115037,-3467,353,1484,-144,-224,-86,66,156,116
1,115042,-3467,353,1484,-144,-224,-86,66,156,116
1,115047,-3467,353,1484,-144,-224,-86,66,156,116
1,115052,-3467,353,1484,-144,-224,-86,66,156,116
1,115057,-3468,356,1483,-141,-224,-83,66,156,116
1,115063,-3468,356,1483,-141,-224,-83,66,156,116
1,115068,-3468,356,1483,-141,-224,-83,66,156,116
1,115074,-3464,358,1485,-133,-224,-90,69,151,117
1,115079,-3464,358,1485,-133,-224,-90,69,151,117
1,115084,-3464,358,1485,-133,-224,-90,69,151,117
1,115089,-3464,358,1485,-133,-224,-90,69,151,117
1,115093,-3462,354,1484,-145,-229,-95,69,151,117
1,115098,-3462,354,1484,-145,-229,-95,69,151,117
1,115103,-3462,354,1484,-145,-229,-95,69,151,117
1,115108,-3462,354,1484,-145,-229,-95,69,151,117
1,115113,-3463,351,1484,-136,-218,-83,69,151,117
1,115119,-3463,351,1484,-136,-218,-83,69,151,117
1,115124,-3463,351,1484,-136,-218,-83,69,151,117
1,115130,-3463,351,1484,-136,-218,-83,69,151,117
1,115135,-3467,350,1482,-134,-209,-79,69,151,117
1,115140,-3467,350,1482,-134,-209,-79,69,151,117
1,115145,-3467,350,1482,-134,-209,-79,69,151,117
1,115150,-3467,350,1482,-134,-209,-79,69,151,117
1,115154,-3465,353,1487,-140,-220,-85,69,151,117
1,115160,-3465,353,1487,-140,-220,-85,69,151,117
1,115165,-3465,353,1487,-140,-220,-85,69,151,117
1,115170,-3465,353,1487,-140,-220,-85,69,151,117
1,115175,-3463,354,1483,-148,-219,-88,69,151,117
1,115180,-3463,354,1483,-148,-219,-88,69,151,117
1,115185,-3463,354,1483,-148,-219,-88,69,151,117
1,115189,-3463,354,1483,-148,-219,-88,69,151,117
1,115194,-3463,357,1485,-139,-219,-91,74,148,114
1,115200,-3463,357,1485,-139,-219,-91,74,148,114
1,115204,-3463,357,1485,-139,-219,-91,74,148,114
1,115209,-3463,357,1485,-139,-219,-91,74,148,114
1,115214,-3463,354,1482,-139,-221,-91,74,148,114
1,115218,-3463,354,1482,-139,-221,-91,74,148,114
1,115224,-3463,354,1482,-139,-221,-91,74,148,114
1,115229,-3463,354,1482,-139,-221,-91,74,148,114
1,115234,-3465,357,1485,-141,-221,-91,74,148,114
1,115238,-3465,357,1485,-141,-221,-91,74,148,114
1,115244,-3465,357,1485,-141,-221,-91,74,148,114
1,115249,-3465,357,1485,-141,-221,-91,74,148,114
1,115255,-3466,349,1478,-139,-224,-95,74,148,114
1,115260,-3466,349,1478,-139,-224,-95,74,148,114
1,115266,-3466,349,1478,-139,-224,-95,74,148,114
1,115271,-3466,349,1478,-139,-224,-95,74,148,114
1,115277,-3462,352,1485,-138,-216,-99,74,148,114
1,115281,-3462,352,1485,-138,-216,-99,74,148,114
1,115288,-3462,352,1485,-138,-216,-99,74,148,114
1,115293,-3465,356,1486,-139,-220,-94,74,148,114
1,115298,-3465,356,1486,-139,-220,-94,74,148,114
1,115303,-3465,356,1486,-139,-220,-94,74,148,114
1,115308,-3465,356,1486,-139,-220,-94,74,148,114
1,115312,-3467,355,1485,-137,-223,-92,77,147,117
1,115317,-3467,355,1485,-137,-223,-92,77,147,117
1,115322,-3467,355,1485,-137,-223,-92,77,147,117
1,115328,-3467,355,1485,-137,-223,-92,77,147,117
1,115333,-3464,357,1484,-140,-223,-89,77,147,117
1,115337,-3464,357,1484,-140,-223,-89,77,147,117
1,115342,-3464,357,1484,-140,-223,-89,77,147,117
1,115347,-3464,357,1484,-140,-223,-89,77,147,117
1,115352,-3464,357,1484,-140,-223,-89,77,147,117
1,115356,-3464,354,1483,-144,-217,-89,77,147,117
1,115362,-3464,354,1483,-144,-217,-89,77,147,117
1,115367,-3464,354,1483,-144,-217,-89,77,147,117
1,115372,-3464,354,1483,-144,-217,-89,77,147,117
1,115377,-3465,354,1485,-141,-222,-93,77,147,117
1,115382,-3465,354,1485,-141,-222,-93,77,147,117
1,115387,-3465,354,1485,-141,-222,-93,77,147,117
1,115392,-3465,354,1485,-141,-222,-93,77,147,117
1,115396,-3464,350,1482,-141,-221,-85,77,147,117
1,115401,-3464,350,1482,-141,-221,-85,77,147,117
1,115406,-3464,350,1482,-141,-221,-85,77,147,117
1,115411,-3464,350,1482,-141,-221,-85,77,147,117
1,115417,-3465,353,1484,-138,-222,-88,77,147,117
1,115422,-3465,353,1484,-138,-222,-88,77,147,117
1,115427,-3465,353,1484,-138,-222,-88,77,147,117
1,115432,-3465,353,1484,-138,-222,-88,77,147,117
1,115436,-3465,353,1484,-138,-222,-88,77,147,117
1,115441,-3465,353,1484,-138,-222,-88,77,147,117
1,115446,-3465,353,1484,-138,-222,-88,77,147,117
1,115451,-3465,353,1484,-138,-222,-88,77,147,117
1,115457,-3464,354,1486,-139,-227,-90,79,149,113
1,115461,-3464,354,1486,-139,-227,-90,79,149,113
1,115466,-3464,354,1486,-139,-227,-90,79,149,113
1,115471,-3464,354,1486,-139,-227,-90,79,149,113
1,115475,-3463,355,1488,-137,-226,-93,79,149,113
1,115480,-3463,355,1488,-137,-226,-93,79,149,113
1,115484,-3463,355,1488,-137,-226,-93,79,149,113
1,115489,-3463,355,1488,-137,-226,-93,79,149,113
1,115494,-3461,354,1485,-132,-219,-94,79,149,113
1,115500,-3461,354,1485,-132,-219,-94,79,149,113
1,115505,-3461,354,1485,-132,-219,-94,79,149,113
1,115510,-3461,354,1485,-132,-219,-94,79,149,113
1,115515,-3464,353,1480,-131,-211,-92,79,149,113
1,115519,-3464,353,1480,-131,-211,-92,79,149,113
1,115524,-3464,353,1480,-131,-211,-92,79,149,113
1,115529,-3464,353,1480,-131,-211,-92,79,149,113
1,115534,-3464,351,1485,-137,-219,-96,79,149,113
1,115539,-3464,351,1485,-137,-219,-96,79,149,113
1,115545,-3464,351,1485,-137,-219,-96,79,149,113
1,115550,-3464,351,1485,-137,-219,-96,79,149,113
1,115555,-3466,351,1479,-143,-214,-90,79,149,113
1,115560,-3466,351,1479,-143,-214,-90,79,149,113
1,115564,-3466,351,1479,-143,-214,-90,79,149,113
1,115568,-3466,351,1479,-143,-214,-90,79,149,113
1,115573,-3467,356,1484,-142,-223,-91,75,161,111
1,115578,-3467,356,1484,-142,-223,-91,75,161,111
1,115582,-3467,356,1484,-142,-223,-91,75,161,111
1,115588,-3467,356,1484,-142,-223,-91,75,161,111
1,115593,-3464,357,1486,-140,-224,-88,75,161,111
1,115598,-3464,357,1486,-140,-224,-88,75,161,111
1,115602,-3464,357,1486,-140,-224,-88,75,161,111
1,115607,-3464,357,1486,-140,-224,-88,75,161,111
1,115612,-3464,357,1486,-140,-224,-88,75,161,111
1,115616,-3459,355,1487,-134,-219,-93,75,161,111
1,115621,-3459,355,1487,-134,-219,-93,75,161,111
1,115625,-3459,355,1487,-134,-219,-93,75,161,111
1,115630,-3459,355,1487,-134,-219,-93,75,161,111
1,115635,-3459,351,1481,-139,-215,-89,75,161,111
1,115640,-3459,351,1481,-139,-215,-89,75,161,111
1,115645,-3459,351,1481,-139,-215,-89,75,161,111
1,115650,-3459,351,1481,-139,-215,-89,75,161,111
1,115655,-3462,352,1486,-136,-219,-90,75,161,111
1,115659,-3462,352,1486,-136,-219,-90,75,161,111
1,115664,-3462,352,1486,-136,-219,-90,75,161,111
1,115670,-3462,352,1486,-136,-219,-90,75,161,111
1,115674,-3469,348,1481,-139,-221,-86,75,161,111
1,115679,-3469,348,1481,-139,-221,-86,75,161,111
1,115684,-3469,348,1481,-139,-221,-86,75,161,111
1,115689,-3469,348,1481,-139,-221,-86,75,161,111
1,115694,-3467,356,1484,-137,-221,-96,70,154,112
1,115698,-3467,356,1484,-137,-221,-96,70,154,112
1,115703,-3467,356,1484,-137,-221,-96,70,154,112
1,115707,-3467,356,1484,-137,-221,-96,70,154,112
1,115713,-3467,356,1484,-137,-221,-96,70,154,112
1,115718,-3463,355,1486,-141,-223,-86,70,154,112
1,115723,-3463,355,1486,-141,-223,-86,70,154,112
1,115728,-3463,355,1486,-141,-223,-86,70,154,112
1,115733,-3462,355,1484,-139,-218,-88,70,154,112
1,115738,-3462,355,1484,-139,-218,-88,70,154,112
1,115742,-3462,355,1484,-139,-218,-88,70,154,112
1,115747,-3462,355,1484,-139,-218,-88,70,154,112
1,115752,-3462,355,1484,-139,-218,-88,70,154,112
1,115758,-3461,355,1480,-136,-220,-91,70,154,112
1,115763,-3461,355,1480,-136,-220,-91,70,154,112
1,115767,-3461,355,1480,-136,-220,-91,70,154,112
1,115773,-3461,355,1480,-136,-220,-91,70,154,112
1,115778,-3464,350,1480,-137,-213,-99,70,154,112
1,115782,-3464,350,1480,-137,-213,-99,70,154,112
1,115787,-3464,350,1480,-137,-213,-99,70,154,112
1,115792,-3464,350,1480,-137,-213,-99,70,154,112
1,115796,-3463,348,1478,-136,-220,-93,70,154,112
1,115802,-3463,348,1478,-136,-220,-93,70,154,112
1,115807,-3463,348,1478,-136,-220,-93,70,154,112
1,115812,-3463,348,1478,-136,-220,-93,70,154,112
1,115817,-3467,351,1488,-134,-221,-91,73,155,117
1,115822,-3467,351,1488,-134,-221,-91,73,155,117
1,115826,-3467,351,1488,-134,-221,-91,73,155,117
1,115832,-3467,351,1488,-134,-221,-91,73,155,117
1,115837,-3464,358,1483,-142,-219,-88,73,155,117
1,115843,-3464,358,1483,-142,-219,-88,73,155,117
1,115848,-3464,358,1483,-142,-219,-88,73,155,117
1,115854,-3462,358,1483,-146,-229,-89,73,155,117
1,115859,-3462,358,1483,-146,-229,-89,73,155,117
1,115864,-3462,358,1483,-146,-229,-89,73,155,117
1,115869,-3462,358,1483,-146,-229,-89,73,155,117
1,115874,-3461,354,1483,-132,-233,-92,73,155,117
1,115879,-3461,354,1483,-132,-233,-92,73,155,117
1,115885,-3461,354,1483,-132,-233,-92,73,155,117
1,115890,-3461,354,1483,-132,-233,-92,73,155,117
1,115895,-3464,354,1481,-141,-227,-88,73,155,117
1,115899,-3464,354,1481,-141,-227,-88,73,155,117
1,115904,-3464,354,1481,-141,-227,-88,73,155,117
1,115909,-3464,354,1481,-141,-227,-88,73,155,117
1,115914,-3466,351,1484,-137,-224,-89,73,155,117
1,115918,-3466,351,1484,-137,-224,-89,73,155,117
1,115923,-3466,351,1484,-137,-224,-89,73,155,117
1,115928,-3466,351,1484,-137,-224,-89,73,155,117
1,115933,-3466,351,1484,-137,-224,-89,73,155,117
1,115938,-3470,355,1482,-145,-222,-97,75,147,121
1,115943,-3470,355,1482,-145,-222,-97,75,147,121
1,115948,-3470,355,1482,-145,-222,-97,75,147,121
1,115953,-3463,353,1486,-145,-221,-101,75,147,121
1,115958,-3463,353,1486,-145,-221,-101,75,147,121
1,115962,-3463,353,1486,-145,-221,-101,75,147,121
1,115968,-3463,353,1486,-145,-221,-101,75,147,121
1,115973,-3463,353,1486,-145,-221,-101,75,147,121
1,115978,-3463,355,1485,-140,-210,-93,75,147,121
1,115983,-3463,355,1485,-140,-210,-93,75,147,121
1,115988,-3463,355,1485,-140,-210,-93,75,147,121
1,115993,-3466,355,1479,-137,-216,-91,75,147,121
1,115998,-3466,355,1479,-137,-216,-91,75,147,121
1,116003,-3466,355,1479,-137,-216,-91,75,147,121
1,116008,-3466,355,1479,-137,-216,-91,75,147,121
1,116014,-3468,356,1485,-138,-219,-89,75,147,121
1,116019,-3468,356,1485,-138,-219,-89,75,147,121
1,116024,-3468,356,1485,-138,-219,-89,75,147,121
1,116029,-3468,356,1485,-138,-219,-89,75,147,121
1,116034,-3467,351,1484,-135,-213,-97,75,147,121
1,116039,-3467,351,1484,-135,-213,-97,75,147,121
1,116043,-3467,351,1484,-135,-213,-97,75,147,121
1,116049,-3467,351,1484,-135,-213,-97,75,147,121
1,116054,-3466,350,1480,-137,-221,-94,75,147,121
1,116059,-3466,350,1480,-137,-221,-94,75,147,121
1,116064,-3466,350,1480,-137,-221,-94,75,147,121
1,116069,-3466,350,1480,-137,-221,-94,75,147,121
1,116074,-3466,352,1489,-142,-225,-81,67,149,121
1,116079,-3466,352,1489,-142,-225,-81,67,149,121
1,116085,-3466,352,1489,-142,-225,-81,67,149,121
1,116091,-3466,352,1489,-142,-225,-81,67,149,121
1,116097,-3463,357,1485,-143,-230,-90,67,149,121
1,116104,-3463,357,1485,-143,-230,-90,67,149,121
1,116109,-3463,357,1485,-143,-230,-90,67,149,121
1,116115,-3464,355,1490,-141,-218,-97,67,149,121
1,116120,-3464,355,1490,-141,-218,-97,67,149,121
1,116125,-3464,355,1490,-141,-218,-97,67,149,121
1,116131,-3464,355,1490,-141,-218,-97,67,149,121
1,116136,-3464,353,1486,-137,-228,-99,67,149,121
1,116142,-3464,353,1486,-137,-228,-99,67,149,121
1,116147,-3464,353,1486,-137,-228,-99,67,149,121
1,116153,-3464,353,1486,-137,-228,-99,67,149,121
1,116159,-3465,353,1484,-140,-220,-88,67,149,121
1,116164,-3465,353,1484,-140,-220,-88,67,149,121
1,116169,-3465,353,1484,-140,-220,-88,67,149,121
1,116174,-3465,350,1481,-139,-214,-80,67,149,121
1,116179,-3465,350,1481,-139,-214,-80,67,149,121
1,116185,-3465,350,1481,-139,-214,-80,67,149,121
1,116190,-3465,350,1481,-139,-214,-80,67,149,121
1,116195,-3464,353,1488,-143,-219,-91,74,142,122
1,116200,-3464,353,1488,-143,-219,-91,74,142,122
1,116205,-3464,353,1488,-143,-219,-91,74,142,122
1,116210,-3464,353,1488,-143,-219,-91,74,142,122
1,116214,-3464,355,1485,-140,-221,-98,74,142,122
1,116219,-3464,355,1485,-140,-221,-98,74,142,122
1,116226,-3464,355,1485,-140,-221,-98,74,142,122
1,116232,-3464,355,1485,-140,-221,-98,74,142,122
1,116238,-3466,353,1485,-141,-229,-89,74,142,122
1,116243,-3466,353,1485,-141,-229,-89,74,142,122
1,116247,-3466,353,1485,-141,-229,-89,74,142,122
1,116252,-3466,353,1485,-141,-229,-89,74,142,122
1,116257,-3465,359,1484,-138,-216,-92,74,142,122
1,116262,-3465,359,1484,-138,-216,-92,74,142,122
1,116267,-3465,359,1484,-138,-216,-92,74,142,122
1,116272,-3465,359,1484,-138,-216,-92,74,142,122
1,116277,-3467,355,1483,-137,-219,-94,74,142,122
1,116281,-3467,355,1483,-137,-219,-94,74,142,122
1,116286,-3467,355,1483,-137,-219,-94,74,142,122
1,116291,-3467,355,1483,-137,-219,-94,74,142,122
1,116295,-3465,355,1483,-136,-220,-94,74,142,122
1,116301,-3465,355,1483,-136,-220,-94,74,142,122
1,116306,-3465,355,1483,-136,-220,-94,74,142,122
1,116311,-3465,355,1483,-136,-220,-94,74,142,122
1,116316,-3463,355,1486,-138,-214,-89,73,157,119
1,116320,-3463,355,1486,-138,-214,-89,73,157,119
1,116325,-3463,355,1486,-138,-214,-89,73,157,119
1,116330,-3463,355,1486,-138,-214,-89,73,157,119
1,116335,-3463,354,1485,-144,-222,-87,73,157,119
1,116340,-3463,354,1485,-144,-222,-87,73,157,119
1,116345,-3463,354,1485,-144,-222,-87,73,157,119
1,116350,-3463,354,1485,-144,-222,-87,73,157,119
1,116355,-3461,352,1484,-130,-219,-93,73,157,119
1,116360,-3461,352,1484,-130,-219,-93,73,157,119
1,116365,-3461,352,1484,-130,-219,-93,73,157,119
1,116370,-3461,352,1484,-130,-219,-93,73,157,119
1,116375,-3465,352,1487,-137,-222,-97,73,157,119
1,116379,-3465,352,1487,-137,-222,-97,73,157,119
1,116384,-3465,352,1487,-137,-222,-97,73,157,119
1,116389,-3465,352,1487,-137,-222,-97,73,157,119
1,116395,-3467,353,1481,-139,-216,-89,73,157,119
1,116399,-3467,353,1481,-139,-216,-89,73,157,119
1,116404,-3467,353,1481,-139,-216,-89,73,157,119
1,116408,-3467,353,1481,-139,-216,-89,73,157,119
1,116413,-3467,353,1481,-139,-216,-89,73,157,119
1,116418,-3467,355,1484,-148,-221,-86,73,157,119
1,116422,-3467,355,1484,-148,-221,-86,73,157,119
1,116426,-3467,355,1484,-148,-221,-86,73,157,119
1,116431,-3467,355,1484,-148,-221,-86,73,157,119
1,116436,-3469,355,1489,-149,-220,-82,73,149,113
1,116442,-3469,355,1489,-149,-220,-82,73,149,113
1,116447,-3469,355,1489,-149,-220,-82,73,149,113
1,116451,-3469,355,1489,-149,-220,-82,73,149,113
1,116456,-3465,354,1482,-143,-226,-94,73,149,113
1,116460,-3465,354,1482,-143,-226,-94,73,149,113
1,116465,-3465,354,1482,-143,-226,-94,73,149,113
1,116470,-3465,354,1482,-143,-226,-94,73,149,113
1,116474,-3463,352,1481,-141,-217,-93,73,149,113
1,116480,-3463,352,1481,-141,-217,-93,73,149,113
1,116484,-3463,352,1481,-141,-217,-93,73,149,113
1,116489,-3463,352,1481,-141,-217,-93,73,149,113
1,116493,-3463,352,1481,-141,-217,-93,73,149,113
1,116498,-3467,356,1485,-144,-220,-91,73,149,113
1,116503,-3467,356,1485,-144,-220,-91,73,149,113
1,116508,-3467,356,1485,-144,-220,-91,73,149,113
1,116513,-3467,356,1485,-144,-220,-91,73,149,113
1,116518,-3469,356,1486,-139,-219,-89,73,149,113
1,116523,-3469,356,1486,-139,-219,-89,73,149,113
1,116528,-3469,356,1486,-139,-219,-89,73,149,113
1,116533,-3469,356,1486,-139,-219,-89,73,149,113
1,116539,-3463,353,1484,-133,-223,-92,73,149,113
1,116546,-3463,353,1484,-133,-223,-92,73,149,113
1,116551,-3463,353,1484,-133,-223,-92,73,149,113
