imu,time,ax,ay,az,gx,gy,gz,mx,my,mz
2,344249,2220,206,-452,-1026,-584,-327,121,-47,-315
2,344256,2218,210,-461,-1026,-583,-320,121,-47,-315
2,344263,2218,210,-461,-1026,-583,-320,121,-47,-315
2,344270,2218,210,-461,-1026,-583,-320,121,-47,-315
2,344278,2216,211,-452,-1024,-585,-326,121,-47,-315
2,344285,2216,211,-452,-1024,-585,-326,121,-47,-315
2,344292,2216,211,-452,-1024,-585,-326,121,-47,-315
2,344299,2220,210,-451,-1014,-582,-325,121,-47,-315
2,344305,2220,210,-451,-1014,-582,-325,121,-47,-315
2,344311,2220,210,-451,-1014,-582,-325,121,-47,-315
2,344316,2217,205,-454,-1015,-581,-321,113,-53,-315
2,344322,2217,205,-454,-1015,-581,-321,113,-53,-315
2,344328,2217,205,-454,-1015,-581,-321,113,-53,-315
2,344333,2217,205,-454,-1015,-581,-321,113,-53,-315
2,344339,2218,206,-453,-1020,-587,-317,113,-53,-315
2,344345,2218,206,-453,-1020,-587,-317,113,-53,-315
2,344351,2218,206,-453,-1020,-587,-317,113,-53,-315
2,344357,2218,206,-449,-1022,-587,-321,113,-53,-315
2,344363,2218,206,-449,-1022,-587,-321,113,-53,-315
2,344369,2218,206,-449,-1022,-587,-321,113,-53,-315
2,344374,2221,211,-454,-1020,-587,-323,113,-53,-315
2,344380,2221,211,-454,-1020,-587,-323,113,-53,-315
2,344385,2221,211,-454,-1020,-587,-323,113,-53,-315
2,344391,2221,211,-454,-1020,-587,-323,113,-53,-315
2,344397,2221,207,-460,-1021,-581,-319,113,-53,-315
2,344403,2221,207,-460,-1021,-581,-319,113,-53,-315
2,344410,2221,207,-460,-1021,-581,-319,113,-53,-315
2,344415,2220,207,-461,-1027,-582,-329,113,-53,-315
2,344422,2220,207,-461,-1027,-582,-329,113,-53,-315
2,344428,2220,207,-461,-1027,-582,-329,113,-53,-315
2,344434,2219,209,-454,-1024,-584,-326,113,-53,-315
2,344440,2219,209,-454,-1024,-584,-326,113,-53,-315
2,344446,2219,209,-454,-1024,-584,-326,113,-53,-315
2,344453,2219,209,-454,-1024,-584,-326,113,-53,-315
2,344460,2217,206,-455,-1023,-587,-324,118,-58,-314
2,344466,2217,206,-455,-1023,-587,-324,118,-58,-314
2,344473,2217,206,-455,-1023,-587,-324,118,-58,-314
2,344480,2219,204,-456,-1026,-587,-323,118,-58,-314
2,344487,2219,204,-456,-1026,-587,-323,118,-58,-314
2,344496,2220,207,-455,-1026,-585,-319,118,-58,-314
2,344503,2220,207,-455,-1026,-585,-319,118,-58,-314
2,344509,2220,207,-455,-1026,-585,-319,118,-58,-314
2,344514,2220,203,-460,-1018,-581,-316,118,-58,-314
2,344520,2220,203,-460,-1018,-581,-316,118,-58,-314
2,344527,2220,203,-460,-1018,-581,-316,118,-58,-314
2,344534,2220,203,-460,-1018,-581,-316,118,-58,-314
2,344540,2219,207,-461,-1011,-577,-321,118,-58,-314
2,344546,2219,207,-461,-1011,-577,-321,118,-58,-314
2,344552,2219,207,-461,-1011,-577,-321,118,-58,-314
2,344557,2221,209,-458,-1007,-577,-320,118,-58,-314
2,344562,2221,209,-458,-1007,-577,-320,118,-58,-314
2,344568,2221,209,-458,-1007,-577,-320,118,-58,-314
2,344574,2220,208,-457,-1017,-576,-320,122,-52,-328
2,344580,2220,208,-457,-1017,-576,-320,122,-52,-328
2,344586,2220,208,-457,-1017,-576,-320,122,-52,-328
2,344591,2220,208,-457,-1017,-576,-320,122,-52,-328
2,344596,2217,209,-452,-1019,-582,-320,122,-52,-328
2,344602,2217,209,-452,-1019,-582,-320,122,-52,-328
2,344607,2217,209,-452,-1019,-582,-320,122,-52,-328
2,344613,2217,209,-452,-1019,-582,-320,122,-52,-328
2,344620,2220,209,-452,-1021,-579,-320,122,-52,-328
2,344626,2220,209,-452,-1021,-579,-320,122,-52,-328
2,344632,2220,209,-452,-1021,-579,-320,122,-52,-328
2,344637,2219,205,-454,-1017,-588,-322,122,-52,-328
2,344643,2219,205,-454,-1017,-588,-322,122,-52,-328
2,344648,2219,205,-454,-1017,-588,-322,122,-52,-328
2,344654,2216,206,-448,-1018,-587,-324,122,-52,-328
2,344659,2216,206,-448,-1018,-587,-324,122,-52,-328
2,344665,2216,206,-448,-1018,-587,-324,122,-52,-328
2,344670,2216,206,-448,-1018,-587,-324,122,-52,-328
2,344676,2216,208,-458,-1023,-586,-324,122,-52,-328
2,344682,2216,208,-458,-1023,-586,-324,122,-52,-328
2,344688,2216,208,-458,-1023,-586,-324,122,-52,-328
2,344694,2220,210,-454,-1028,-583,-323,113,-52,-328
2,344700,2220,210,-454,-1028,-583,-323,113,-53,-319
2,344706,2220,210,-454,-1028,-583,-323,113,-53,-319
2,344711,2220,210,-454,-1028,-583,-323,113,-53,-319
2,344716,2220,208,-450,-1017,-583,-324,113,-53,-319
2,344722,2220,208,-450,-1017,-583,-324,113,-53,-319
2,344727,2220,208,-450,-1017,-583,-324,113,-53,-319
2,344733,2220,208,-450,-1017,-583,-324,113,-53,-319
2,344738,2220,208,-454,-1022,-575,-319,113,-53,-319
2,344744,2220,208,-454,-1022,-575,-319,113,-53,-319
2,344751,2220,208,-454,-1022,-575,-319,113,-53,-319
2,344756,2217,205,-455,-1012,-580,-321,113,-53,-319
2,344762,2217,205,-455,-1012,-580,-321,113,-53,-319
2,344768,2217,205,-455,-1012,-580,-321,113,-53,-319
2,344773,2217,205,-455,-1012,-580,-321,113,-53,-319
2,344778,2220,207,-453,-1007,-589,-326,113,-53,-319
2,344784,2220,207,-453,-1007,-589,-326,113,-53,-319
2,344790,2220,207,-453,-1007,-589,-326,113,-53,-319
2,344795,2218,210,-455,-1023,-585,-322,113,-53,-319
2,344801,2218,210,-455,-1023,-585,-322,113,-53,-319
2,344806,2218,210,-455,-1023,-585,-322,113,-53,-319
2,344812,2218,210,-455,-1023,-585,-322,113,-53,-319
2,344817,2221,208,-464,-1013,-582,-323,113,-53,-319
2,344823,2221,208,-464,-1013,-582,-323,113,-53,-319
2,344829,2221,208,-464,-1013,-582,-323,113,-53,-319
2,344836,2219,211,-452,-1015,-577,-321,125,-45,-329
2,344842,2219,211,-452,-1015,-577,-321,125,-45,-329
2,344849,2219,211,-452,-1015,-577,-321,125,-45,-329
2,344854,2219,211,-452,-1015,-577,-321,125,-45,-329
2,344859,2218,206,-455,-1015,-580,-321,125,-45,-329
2,344865,2218,206,-455,-1015,-580,-321,125,-45,-329
2,344871,2218,206,-455,-1015,-580,-321,125,-45,-329
2,344879,2218,204,-455,-1020,-583,-322,125,-45,-329
2,344885,2218,204,-455,-1020,-583,-322,125,-45,-329
2,344891,2218,204,-455,-1020,-583,-322,125,-45,-329
2,344898,2217,207,-458,-1010,-587,-321,125,-45,-329
2,344903,2217,207,-458,-1010,-587,-321,125,-45,-329
2,344909,2217,207,-458,-1010,-587,-321,125,-45,-329
2,344915,2220,208,-457,-1010,-578,-331,125,-45,-329
2,344921,2220,208,-457,-1010,-578,-331,125,-45,-329
2,344927,2220,208,-457,-1010,-578,-331,125,-45,-329
2,344932,2220,208,-457,-1010,-578,-331,125,-45,-329
2,344938,2221,210,-449,-1011,-583,-329,125,-45,-329
2,344943,2221,210,-449,-1011,-583,-329,125,-45,-329
2,344949,2221,210,-449,-1011,-583,-329,125,-45,-329
2,344954,2221,210,-449,-1011,-583,-329,125,-45,-329
2,344961,2219,209,-453,-1016,-588,-325,117,-55,-325
2,344967,2219,209,-453,-1016,-588,-325,117,-55,-325
2,344973,2219,209,-453,-1016,-588,-325,117,-55,-325
2,344978,2219,206,-456,-1019,-585,-321,117,-55,-325
2,344984,2219,206,-456,-1019,-585,-321,117,-55,-325
2,344989,2219,206,-456,-1019,-585,-321,117,-55,-325
2,344995,2217,209,-453,-1022,-586,-322,117,-55,-325
2,345000,2217,209,-453,-1022,-586,-322,117,-55,-325
2,345007,2217,209,-453,-1022,-586,-322,117,-55,-325
2,345012,2217,209,-453,-1022,-586,-322,117,-55,-325
2,345017,2219,207,-457,-1015,-577,-317,117,-55,-325
2,345022,2219,207,-457,-1015,-577,-317,117,-55,-325
2,345028,2219,207,-457,-1015,-577,-317,117,-55,-325
2,345034,2219,207,-457,-1015,-577,-317,117,-55,-325
2,345039,2220,206,-457,-1021,-577,-323,117,-55,-325
2,345046,2220,206,-457,-1021,-577,-323,117,-55,-325
2,345051,2220,206,-457,-1021,-577,-323,117,-55,-325
2,345056,2218,209,-457,-1024,-576,-320,117,-55,-325
2,345061,2218,209,-457,-1024,-576,-320,117,-55,-325
2,345067,2218,209,-457,-1024,-576,-320,117,-55,-325
2,345072,2218,209,-457,-1024,-576,-320,117,-55,-325
2,345077,2220,207,-463,-1022,-582,-331,117,-55,-325
2,345082,2220,207,-463,-1022,-582,-331,117,-55,-325
2,345089,2220,207,-463,-1022,-582,-331,117,-55,-325
2,345094,2220,207,-463,-1022,-582,-331,117,-55,-325
2,345100,2219,208,-454,-1015,-585,-329,117,-51,-321
2,345105,2219,208,-454,-1015,-585,-329,117,-51,-321
2,345110,2219,208,-454,-1015,-585,-329,117,-51,-321
2,345115,2218,207,-449,-1019,-580,-323,117,-51,-321
2,345121,2218,207,-449,-1019,-580,-323,117,-51,-321
2,345126,2218,207,-449,-1019,-580,-323,117,-51,-321
2,345132,2218,207,-449,-1019,-580,-323,117,-51,-321
2,345138,2221,205,-458,-1023,-581,-317,117,-51,-321
2,345144,2221,205,-458,-1023,-581,-317,117,-51,-321
2,345150,2221,205,-458,-1023,-581,-317,117,-51,-321
2,345157,2221,205,-458,-1023,-581,-317,117,-51,-321
2,345162,2221,205,-458,-1023,-581,-317,117,-51,-321
2,345167,2221,205,-458,-1023,-581,-317,117,-51,-321
2,345172,2221,205,-458,-1023,-581,-317,117,-51,-321
2,345179,2221,208,-450,-1032,-587,-325,117,-51,-321
2,345184,2221,208,-450,-1032,-587,-325,117,-51,-321
2,345190,2221,208,-450,-1032,-587,-325,117,-51,-321
2,345196,2218,208,-453,-1023,-588,-319,117,-51,-321
2,345201,2218,208,-453,-1023,-588,-319,117,-51,-321
2,345207,2218,208,-453,-1023,-588,-319,117,-51,-321
2,345213,2218,208,-453,-1023,-588,-319,117,-51,-321
2,345219,2218,208,-448,-1016,-582,-318,119,-51,-323
2,345226,2218,208,-448,-1016,-582,-318,119,-51,-323
2,345231,2218,208,-448,-1016,-582,-318,119,-51,-323
2,345237,2216,207,-455,-1025,-583,-319,119,-51,-323
2,345243,2216,207,-455,-1025,-583,-319,119,-51,-323
2,345249,2216,207,-455,-1025,-583,-319,119,-51,-323
2,345255,2221,208,-456,-1029,-587,-328,119,-51,-323
2,345262,2221,208,-456,-1029,-587,-328,119,-51,-323
2,345267,2221,208,-456,-1029,-587,-328,119,-51,-323
2,345273,2221,208,-456,-1029,-587,-328,119,-51,-323
2,345278,2221,206,-459,-1025,-580,-316,119,-51,-323
2,345283,2221,206,-459,-1025,-580,-316,119,-51,-323
2,345289,2221,206,-459,-1025,-580,-316,119,-51,-323
2,345294,2221,206,-459,-1025,-580,-316,119,-51,-323
2,345299,2223,205,-457,-1020,-577,-325,119,-51,-323
2,345306,2223,205,-457,-1020,-577,-325,119,-51,-323
2,345311,2223,205,-457,-1020,-577,-325,119,-51,-323
2,345317,2220,205,-460,-1020,-581,-325,119,-51,-323
2,345323,2220,205,-460,-1020,-581,-325,119,-51,-323
2,345328,2220,205,-460,-1020,-581,-325,119,-51,-323
2,345334,2220,205,-460,-1020,-581,-325,119,-51,-323
2,345340,2219,205,-457,-1024,-581,-323,117,-49,-317
2,345346,2219,205,-457,-1024,-581,-323,117,-49,-317
2,345351,2219,205,-457,-1024,-581,-323,117,-49,-317
2,345357,2220,207,-452,-1017,-583,-323,117,-49,-317
2,345362,2220,207,-452,-1017,-583,-323,117,-49,-317
2,345367,2220,207,-452,-1017,-583,-323,117,-49,-317
2,345373,2220,207,-452,-1017,-583,-323,117,-49,-317
2,345380,2218,210,-452,-1006,-578,-316,117,-49,-317
2,345387,2218,210,-452,-1006,-578,-316,117,-49,-317
2,345392,2218,210,-452,-1006,-578,-316,117,-49,-317
2,345398,2218,205,-456,-1014,-578,-320,117,-49,-317
2,345403,2218,205,-456,-1014,-578,-320,117,-49,-317
2,345408,2218,205,-456,-1014,-578,-320,117,-49,-317
2,345413,2218,205,-456,-1014,-578,-320,117,-49,-317
2,345419,2220,206,-452,-1021,-583,-320,117,-49,-317
2,345424,2220,206,-452,-1021,-583,-320,117,-49,-317
2,345430,2220,206,-452,-1021,-583,-320,117,-49,-317
2,345435,2220,206,-452,-1021,-583,-320,117,-49,-317
2,345441,2220,205,-457,-1024,-579,-321,117,-49,-317
2,345446,2220,205,-457,-1024,-579,-321,117,-49,-317
2,345451,2220,205,-457,-1024,-579,-321,117,-49,-317
2,345456,2220,205,-457,-1024,-579,-321,117,-49,-317
2,345462,2220,205,-457,-1024,-579,-321,117,-49,-317
2,345468,2220,205,-457,-1024,-579,-321,117,-49,-317
2,345474,2220,205,-457,-1024,-579,-321,117,-49,-317
2,345480,2215,203,-445,-1023,-582,-316,108,-48,-322
2,345486,2215,203,-445,-1023,-582,-316,108,-48,-322
2,345491,2215,203,-445,-1023,-582,-316,108,-48,-322
2,345496,2215,208,-451,-1021,-581,-318,108,-48,-322
2,345502,2215,208,-451,-1021,-581,-318,108,-48,-322
2,345507,2215,208,-451,-1021,-581,-318,108,-48,-322
2,345512,2215,208,-451,-1021,-581,-318,108,-48,-322
2,345518,2221,208,-454,-1018,-582,-316,108,-48,-322
2,345524,2221,208,-454,-1018,-582,-316,108,-48,-322
2,345529,2221,208,-454,-1018,-582,-316,108,-48,-322
2,345535,2221,208,-454,-1018,-582,-316,108,-48,-322
2,345540,2217,208,-456,-1020,-585,-322,108,-48,-322
2,345546,2217,208,-456,-1020,-585,-322,108,-48,-322
2,345551,2217,208,-456,-1020,-585,-322,108,-48,-322
2,345556,2220,208,-455,-1020,-573,-322,108,-48,-322
2,345562,2220,208,-455,-1020,-573,-322,108,-48,-322
2,345568,2220,208,-455,-1020,-573,-322,108,-48,-322
2,345573,2220,208,-455,-1020,-573,-322,108,-48,-322
2,345579,2219,204,-457,-1019,-586,-330,108,-48,-322
2,345585,2219,204,-457,-1019,-586,-330,108,-48,-322
2,345591,2219,204,-457,-1019,-586,-330,108,-48,-322
2,345597,2221,209,-454,-1013,-587,-326,108,-48,-314
2,345603,2221,209,-454,-1013,-587,-326,108,-48,-314
2,345609,2221,209,-454,-1013,-587,-326,108,-48,-314
2,345615,2221,209,-454,-1013,-587,-326,108,-48,-314
2,345621,2220,206,-454,-1023,-581,-320,108,-48,-314
2,345627,2220,206,-454,-1023,-581,-320,108,-48,-314
2,345632,2220,206,-454,-1023,-581,-320,108,-48,-314
2,345638,2216,204,-453,-1026,-580,-315,108,-48,-314
2,345645,2216,204,-453,-1026,-580,-315,108,-48,-314
2,345650,2216,204,-453,-1026,-580,-315,108,-48,-314
2,345656,2216,204,-453,-1026,-580,-315,108,-48,-314
2,345662,2216,204,-453,-1026,-580,-315,108,-48,-314
2,345668,2216,204,-453,-1026,-580,-315,108,-48,-314
2,345674,2216,204,-453,-1026,-580,-315,108,-48,-314
2,345681,2221,203,-459,-1019,-578,-325,108,-48,-314
2,345689,2221,203,-459,-1019,-578,-325,108,-48,-314
2,345696,2217,204,-458,-1017,-582,-318,108,-48,-314
2,345702,2217,204,-458,-1017,-582,-318,108,-48,-314
2,345708,2217,204,-458,-1017,-582,-318,108,-48,-314
2,345714,2217,204,-458,-1017,-582,-318,108,-48,-314
2,345720,2218,207,-456,-1015,-585,-310,108,-48,-314
2,345725,2218,207,-456,-1015,-585,-310,108,-48,-314
2,345732,2218,207,-456,-1015,-585,-310,108,-48,-314
2,345738,2219,206,-446,-1020,-580,-324,108,-58,-326
2,345743,2219,206,-446,-1020,-580,-324,108,-58,-326
2,345749,2219,206,-446,-1020,-580,-324,108,-58,-326
2,345755,2219,206,-446,-1020,-580,-324,108,-58,-326
2,345761,2218,206,-454,-1024,-583,-317,108,-58,-326
2,345766,2218,206,-454,-1024,-583,-317,108,-58,-326
2,345772,2218,206,-454,-1024,-583,-317,108,-58,-326
2,345778,2218,206,-455,-1017,-588,-330,108,-58,-326
2,345783,2218,206,-455,-1017,-588,-330,108,-58,-326
2,345789,2218,206,-455,-1017,-588,-330,108,-58,-326
2,345793,2218,206,-455,-1017,-588,-330,108,-58,-326
2,345799,2219,205,-448,-1013,-582,-325,108,-58,-326
2,345804,2219,205,-448,-1013,-582,-325,108,-58,-326
2,345810,2219,205,-448,-1013,-582,-325,108,-58,-326
2,345816,2219,208,-457,-1010,-579,-311,108,-58,-326
2,345821,2219,208,-457,-1010,-579,-311,108,-58,-326
2,345826,2219,208,-457,-1010,-579,-311,108,-58,-326
2,345831,2219,208,-457,-1010,-579,-311,108,-58,-326
2,345836,2221,206,-452,-1014,-578,-311,108,-58,-326
2,345842,2221,206,-452,-1014,-578,-311,108,-58,-326
2,345847,2221,206,-452,-1014,-578,-311,108,-58,-326
2,345852,2221,206,-452,-1014,-578,-311,108,-58,-326
2,345858,2220,208,-452,-1021,-583,-323,113,-51,-331
2,345863,2220,208,-452,-1021,-583,-323,113,-51,-331
2,345868,2220,208,-452,-1021,-583,-323,113,-51,-331
2,345873,2220,208,-452,-1021,-583,-323,113,-51,-331
2,345879,2217,208,-450,-1021,-582,-327,113,-51,-331
2,345883,2217,208,-450,-1021,-582,-327,113,-51,-331
2,345889,2217,208,-450,-1021,-582,-327,113,-51,-331
2,345894,2217,208,-450,-1021,-582,-327,113,-51,-331
2,345901,2220,208,-454,-1020,-586,-325,113,-51,-331
2,345906,2220,208,-454,-1020,-586,-325,113,-51,-331
2,345911,2220,208,-454,-1020,-586,-325,113,-51,-331
2,345917,2221,207,-462,-1019,-581,-327,113,-51,-331
2,345922,2221,207,-462,-1019,-581,-327,113,-51,-331
2,345927,2221,207,-462,-1019,-581,-327,113,-51,-331
2,345933,2221,207,-462,-1019,-581,-327,113,-51,-331
2,345938,2216,205,-456,-1021,-584,-330,113,-51,-331
2,345945,2216,205,-456,-1021,-584,-330,113,-51,-331
2,345950,2216,205,-456,-1021,-584,-330,113,-51,-331
2,345955,2216,205,-456,-1021,-584,-330,113,-51,-331
2,345961,2219,206,-457,-1023,-584,-322,113,-51,-331
2,345967,2219,206,-457,-1023,-584,-322,113,-51,-331
2,345972,2219,206,-457,-1023,-584,-322,113,-51,-331
2,345978,2219,208,-451,-1017,-587,-324,123,-45,-317
2,345984,2219,208,-451,-1017,-587,-324,123,-45,-317
2,345989,2219,208,-451,-1017,-587,-324,123,-45,-317
2,345995,2219,208,-451,-1017,-587,-324,123,-45,-317
2,346000,2214,205,-457,-1013,-580,-326,123,-45,-317
2,346005,2214,205,-457,-1013,-580,-326,123,-45,-317
2,346010,2214,205,-457,-1013,-580,-326,123,-45,-317
2,346016,2218,205,-455,-1021,-585,-320,123,-45,-317
2,346021,2218,205,-455,-1021,-585,-320,123,-45,-317
2,346028,2218,205,-455,-1021,-585,-320,123,-45,-317
2,346033,2218,205,-455,-1021,-585,-320,123,-45,-317
2,346038,2217,209,-457,-1020,-586,-325,123,-45,-317
2,346043,2217,209,-457,-1020,-586,-325,123,-45,-317
2,346048,2217,209,-457,-1020,-586,-325,123,-45,-317
2,346054,2217,209,-457,-1020,-586,-325,123,-45,-317
2,346059,2220,209,-455,-1018,-582,-319,123,-45,-317
2,346064,2220,209,-455,-1018,-582,-319,123,-45,-317
2,346071,2220,209,-455,-1018,-582,-319,123,-45,-317
2,346077,2219,207,-453,-1021,-586,-324,123,-45,-317
2,346082,2219,207,-453,-1021,-586,-324,123,-45,-317
2,346088,2219,207,-453,-1021,-586,-324,123,-45,-317
2,346093,2219,207,-453,-1021,-586,-324,123,-45,-317
2,346098,2220,207,-453,-1019,-581,-321,123,-45,-317
2,346104,2220,207,-453,-1019,-581,-321,123,-45,-317
2,346109,2220,207,-453,-1019,-581,-321,123,-45,-317
2,346116,2220,207,-453,-1019,-581,-321,123,-45,-317
2,346121,2219,206,-457,-1019,-581,-322,109,-51,-321
2,346127,2219,206,-457,-1019,-581,-322,109,-51,-321
2,346132,2219,206,-457,-1019,-581,-322,109,-51,-321
2,346137,2218,209,-451,-1024,-582,-325,109,-51,-321
2,346142,2218,209,-451,-1024,-582,-325,109,-51,-321
2,346148,2218,209,-451,-1024,-582,-325,109,-51,-321
2,346153,2218,209,-451,-1024,-582,-325,109,-51,-321
2,346160,2219,205,-452,-1021,-578,-326,109,-51,-321
2,346165,2219,205,-452,-1021,-578,-326,109,-51,-321
2,346170,2219,205,-452,-1021,-578,-326,109,-51,-321
2,346176,2219,205,-452,-1021,-578,-326,109,-51,-321
2,346181,2218,206,-456,-1022,-582,-321,109,-51,-321
2,346186,2218,206,-456,-1022,-582,-321,109,-51,-321
2,346192,2218,206,-456,-1022,-582,-321,109,-51,-321
2,346199,2218,206,-459,-1021,-589,-315,109,-51,-321
2,346204,2218,206,-459,-1021,-589,-315,109,-51,-321
2,346210,2218,206,-459,-1021,-589,-315,109,-51,-321
2,346215,2218,206,-459,-1021,-589,-315,109,-51,-321
2,346221,2223,206,-458,-1018,-588,-320,109,-51,-321
2,346226,2223,206,-458,-1018,-588,-320,109,-51,-321
2,346231,2223,206,-458,-1018,-588,-320,109,-51,-321
2,346237,2223,206,-458,-1018,-588,-320,114,-54,-320
2,346243,2223,206,-458,-1018,-588,-320,114,-54,-320
2,346248,2223,206,-458,-1018,-588,-320,114,-54,-320
2,346253,2223,206,-458,-1018,-588,-320,114,-54,-320
2,346258,2217,205,-454,-1015,-580,-327,114,-54,-320
2,346264,2217,205,-454,-1015,-580,-327,114,-54,-320
2,346269,2217,205,-454,-1015,-580,-327,114,-54,-320
2,346275,2217,205,-454,-1015,-580,-327,114,-54,-320
2,346280,2219,207,-455,-1010,-581,-325,114,-54,-320
2,346287,2219,207,-455,-1010,-581,-325,114,-54,-320
2,346292,2219,207,-455,-1010,-581,-325,114,-54,-320
2,346297,2221,208,-459,-1016,-577,-319,114,-54,-320
2,346303,2221,208,-459,-1016,-577,-319,114,-54,-320
2,346309,2221,208,-459,-1016,-577,-319,114,-54,-320
2,346315,2221,208,-459,-1016,-577,-319,114,-54,-320
2,346321,2217,209,-458,-1026,-575,-323,114,-54,-320
2,346328,2217,209,-458,-1026,-575,-323,114,-54,-320
2,346334,2217,209,-458,-1026,-575,-323,114,-54,-320
2,346339,2219,209,-453,-1017,-582,-322,114,-54,-320
2,346346,2219,209,-453,-1017,-582,-322,114,-54,-320
2,346352,2219,209,-453,-1017,-582,-322,114,-54,-320
2,346358,2219,209,-453,-1017,-582,-322,114,-54,-320
2,346364,2219,209,-453,-1017,-582,-322,114,-54,-320
2,346371,2219,209,-453,-1017,-582,-322,114,-54,-320
2,346377,2218,204,-451,-1019,-585,-331,113,-57,-321
2,346383,2218,204,-451,-1019,-585,-331,113,-57,-321
2,346389,2218,204,-451,-1019,-585,-331,113,-57,-321
2,346394,2218,204,-451,-1019,-585,-331,113,-57,-321
2,346399,2219,203,-453,-1024,-582,-322,113,-57,-321
2,346405,2219,203,-453,-1024,-582,-322,113,-57,-321
2,346412,2219,203,-453,-1024,-582,-322,113,-57,-321
2,346418,2221,205,-457,-1020,-580,-319,113,-57,-321
2,346424,2221,205,-457,-1020,-580,-319,113,-57,-321
2,346430,2221,205,-457,-1020,-580,-319,113,-57,-321
2,346437,2221,207,-460,-1021,-586,-324,113,-57,-321
2,346443,2221,207,-460,-1021,-586,-324,113,-57,-321
2,346449,2221,207,-460,-1021,-586,-324,113,-57,-321
2,346457,2220,206,-451,-1020,-588,-323,113,-57,-321
2,346464,2220,206,-451,-1020,-588,-323,113,-57,-321
2,346471,2220,206,-451,-1020,-588,-323,113,-57,-321
2,346478,2219,207,-454,-1028,-588,-321,113,-57,-321
2,346484,2219,207,-454,-1028,-588,-321,113,-57,-321
2,346490,2219,207,-454,-1028,-588,-321,113,-57,-321
2,346497,2219,207,-454,-1028,-588,-321,113,-57,-321
2,346503,2219,207,-449,-1026,-584,-308,117,-55,-317
2,346508,2219,207,-449,-1026,-584,-308,117,-55,-317
2,346514,2219,207,-449,-1026,-584,-308,117,-55,-317
2,346520,2219,207,-450,-1025,-578,-309,117,-55,-317
2,346526,2219,207,-450,-1025,-578,-309,117,-55,-317
2,346531,2219,207,-450,-1025,-578,-309,117,-55,-317
2,346536,2219,207,-450,-1025,-578,-309,117,-55,-317
2,346542,2220,204,-455,-1027,-581,-322,117,-55,-317
2,346548,2220,204,-455,-1027,-581,-322,117,-55,-317
2,346554,2220,204,-455,-1027,-581,-322,117,-55,-317
2,346560,2220,204,-455,-1027,-581,-322,117,-55,-317
2,346566,2220,204,-455,-1027,-581,-322,117,-55,-317
2,346572,2220,204,-455,-1027,-581,-322,117,-55,-317
2,346578,2215,204,-456,-1018,-578,-321,117,-55,-317
2,346585,2215,204,-456,-1018,-578,-321,117,-55,-317
2,346591,2215,204,-456,-1018,-578,-321,117,-55,-317
2,346596,2215,204,-456,-1018,-578,-321,117,-55,-317
2,346603,2219,208,-454,-1028,-578,-325,117,-55,-317
2,346609,2219,208,-454,-1028,-578,-325,117,-55,-317
2,346616,2219,208,-454,-1028,-578,-325,117,-55,-317
2,346624,2218,208,-458,-1027,-586,-320,111,-49,-323
2,346631,2218,208,-458,-1027,-586,-320,111,-49,-323
2,346636,2218,208,-458,-1027,-586,-320,111,-49,-323
2,346642,2220,207,-453,-1019,-582,-323,111,-49,-323
2,346647,2220,207,-453,-1019,-582,-323,111,-49,-323
2,346653,2220,207,-453,-1019,-582,-323,111,-49,-323
2,346658,2221,206,-455,-1022,-587,-320,111,-49,-323
2,346663,2221,206,-455,-1022,-587,-320,111,-49,-323
2,346670,2221,206,-455,-1022,-587,-320,111,-49,-323
2,346676,2221,206,-455,-1022,-587,-320,111,-49,-323
2,346681,2220,207,-455,-1020,-584,-321,111,-49,-323
2,346686,2220,207,-455,-1020,-584,-321,111,-49,-323
2,346691,2220,207,-455,-1020,-584,-321,111,-49,-323
2,346697,2219,208,-450,-1019,-579,-320,111,-49,-323
2,346702,2219,208,-450,-1019,-579,-320,111,-49,-323
2,346707,2219,208,-450,-1019,-579,-320,111,-49,-323
2,346713,2219,208,-450,-1019,-579,-320,111,-49,-323
2,346719,2218,206,-458,-1022,-581,-327,111,-49,-323
2,346724,2218,206,-458,-1022,-581,-327,111,-49,-323
2,346730,2218,206,-458,-1022,-581,-327,111,-49,-323
2,346736,2218,206,-458,-1022,-581,-327,111,-49,-323
2,346741,2220,208,-454,-1030,-576,-321,111,-49,-323
2,346747,2220,208,-454,-1030,-576,-321,111,-49,-323
2,346754,2220,208,-454,-1030,-576,-321,111,-49,-323
2,346759,2220,207,-453,-1025,-576,-324,112,-52,-324
2,346764,2220,207,-453,-1025,-576,-324,112,-52,-324
2,346770,2220,207,-453,-1025,-576,-324,112,-52,-324
2,346776,2220,207,-453,-1025,-576,-324,112,-52,-324
2,346781,2216,206,-449,-1015,-587,-328,112,-52,-324
2,346787,2216,206,-449,-1015,-587,-328,112,-52,-324
2,346792,2216,206,-449,-1015,-587,-328,112,-52,-324
2,346798,2218,206,-453,-1015,-583,-326,112,-52,-324
2,346804,2218,206,-453,-1015,-583,-326,112,-52,-324
2,346810,2218,206,-453,-1015,-583,-326,112,-52,-324
2,346815,2218,206,-453,-1015,-583,-326,112,-52,-324
2,346821,2221,206,-455,-1022,-589,-317,112,-52,-324
2,346826,2221,206,-455,-1022,-589,-317,112,-52,-324
2,346831,2221,206,-455,-1022,-589,-317,112,-52,-324
2,346838,2218,204,-454,-1018,-593,-321,112,-52,-324
2,346843,2218,204,-454,-1018,-593,-321,112,-52,-324
2,346848,2218,204,-454,-1018,-593,-321,112,-52,-324
2,346854,2218,204,-454,-1018,-593,-321,112,-52,-324
2,346859,2218,207,-456,-1013,-578,-329,112,-52,-324
2,346864,2218,207,-456,-1013,-578,-329,112,-52,-324
2,346870,2218,207,-456,-1013,-578,-329,112,-52,-324
2,346875,2218,207,-456,-1013,-578,-329,112,-52,-324
2,346882,2219,205,-447,-1025,-570,-327,113,-51,-319
2,346886,2219,205,-447,-1025,-570,-327,113,-51,-319
2,346891,2219,205,-447,-1025,-570,-327,113,-51,-319
2,346897,2219,205,-447,-1025,-570,-327,113,-51,-319
2,346902,2218,208,-451,-1022,-574,-324,113,-51,-319
2,346907,2218,208,-451,-1022,-574,-324,113,-51,-319
2,346913,2218,208,-451,-1022,-574,-324,113,-51,-319
2,346919,2219,207,-452,-1018,-584,-324,113,-51,-319
2,346926,2219,207,-452,-1018,-584,-324,113,-51,-319
2,346931,2219,207,-452,-1018,-584,-324,113,-51,-319
2,346936,2219,207,-452,-1018,-584,-324,113,-51,-319
2,346942,2219,207,-451,-1020,-581,-327,113,-51,-319
2,346947,2219,207,-451,-1020,-581,-327,113,-51,-319
2,346952,2219,207,-451,-1020,-581,-327,113,-51,-319
2,346957,2219,207,-451,-1020,-581,-327,113,-51,-319
2,346962,2220,207,-453,-1012,-581,-326,113,-51,-319
2,346970,2220,207,-453,-1012,-581,-326,113,-51,-319
2,346975,2220,207,-453,-1012,-581,-326,113,-51,-319
2,346980,2220,205,-459,-1008,-579,-324,113,-51,-319
2,346986,2220,205,-459,-1008,-579,-324,113,-51,-319
2,346992,2220,205,-459,-1008,-579,-324,113,-51,-319
2,346998,2218,202,-452,-1014,-575,-323,113,-51,-319
2,347003,2218,202,-452,-1014,-575,-323,113,-51,-319
2,347009,2218,202,-452,-1014,-575,-323,113,-51,-319
2,347014,2218,202,-452,-1014,-575,-323,113,-51,-319
2,347020,2219,205,-453,-1023,-572,-323,106,-50,-320
2,347025,2219,205,-453,-1023,-572,-323,106,-50,-320
2,347031,2219,205,-453,-1023,-572,-323,106,-50,-320
2,347036,2219,205,-453,-1023,-572,-323,106,-50,-320
2,347042,2217,206,-452,-1016,-581,-323,106,-50,-320
2,347047,2217,206,-452,-1016,-581,-323,106,-50,-320
2,347053,2217,206,-452,-1016,-581,-323,106,-50,-320
2,347059,2221,205,-458,-1011,-584,-323,106,-50,-320
2,347064,2221,205,-458,-1011,-584,-323,106,-50,-320
2,347070,2221,205,-458,-1011,-584,-323,106,-50,-320
2,347075,2221,205,-458,-1011,-584,-323,106,-50,-320
2,347081,2219,208,-460,-1010,-587,-324,106,-50,-320
2,347088,2219,208,-460,-1010,-587,-324,106,-50,-320
2,347094,2219,208,-460,-1010,-587,-324,106,-50,-320
2,347099,2218,205,-451,-1018,-586,-320,106,-50,-320
2,347105,2218,205,-451,-1018,-586,-320,106,-50,-320
2,347112,2218,205,-451,-1018,-586,-320,106,-50,-320
2,347117,2217,207,-458,-1011,-577,-318,106,-50,-320
2,347123,2217,207,-458,-1011,-577,-318,106,-50,-320
2,347130,2217,207,-458,-1011,-577,-318,106,-50,-320
2,347137,2217,207,-458,-1011,-577,-318,106,-50,-320
2,347142,2218,208,-454,-1019,-579,-321,114,-50,-326
2,347148,2218,208,-454,-1019,-579,-321,114,-50,-326
2,347155,2218,208,-454,-1019,-579,-321,114,-50,-326
2,347162,2217,205,-454,-1018,-578,-324,114,-50,-326
2,347168,2217,205,-454,-1018,-578,-324,114,-50,-326
2,347174,2217,205,-454,-1018,-578,-324,114,-50,-326
2,347182,2219,206,-455,-1022,-580,-326,114,-50,-326
2,347188,2219,206,-455,-1022,-580,-326,114,-50,-326
2,347194,2219,206,-455,-1022,-580,-326,114,-50,-326
2,347200,2222,207,-452,-1011,-583,-321,114,-50,-326
2,347205,2222,207,-452,-1011,-583,-321,114,-50,-326
2,347211,2222,207,-452,-1011,-583,-321,114,-50,-326
2,347216,2222,207,-452,-1011,-583,-321,114,-50,-326
2,347223,2220,210,-452,-1013,-586,-321,114,-50,-326
2,347228,2220,210,-452,-1013,-586,-321,114,-50,-326
2,347233,2220,210,-452,-1013,-586,-321,114,-50,-326
2,347238,2219,207,-455,-1019,-581,-318,114,-50,-326
2,347244,2219,207,-455,-1019,-581,-318,114,-50,-326
2,347251,2219,207,-455,-1019,-581,-318,114,-50,-326
2,347258,2216,209,-453,-1013,-582,-326,114,-50,-324
2,347265,2216,209,-453,-1013,-582,-326,114,-50,-324
2,347271,2216,209,-453,-1013,-582,-326,114,-50,-324
2,347276,2216,209,-453,-1013,-582,-326,114,-50,-324
2,347282,2219,207,-458,-1023,-583,-323,114,-50,-324
2,347288,2219,207,-458,-1023,-583,-323,114,-50,-324
2,347293,2219,207,-458,-1023,-583,-323,114,-50,-324
2,347299,2218,206,-450,-1030,-582,-325,114,-50,-324
2,347304,2218,206,-450,-1030,-582,-325,114,-50,-324
2,347310,2218,206,-450,-1030,-582,-325,114,-50,-324
2,347316,2218,206,-450,-1030,-582,-325,114,-50,-324
2,347321,2220,203,-451,-1014,-580,-319,114,-50,-324
2,347327,2220,203,-451,-1014,-580,-319,114,-50,-324
2,347333,2220,203,-451,-1014,-580,-319,114,-50,-324
2,347339,2218,206,-450,-1009,-575,-321,114,-50,-324
2,347346,2218,206,-450,-1009,-575,-321,114,-50,-324
2,347353,2218,206,-450,-1009,-575,-321,114,-50,-324
2,347359,2218,206,-456,-1018,-580,-322,114,-50,-324
2,347365,2218,206,-456,-1018,-580,-322,114,-50,-324
2,347371,2218,206,-456,-1018,-580,-322,114,-50,-324
2,347376,2218,206,-456,-1018,-580,-322,114,-50,-324
2,347382,2220,207,-457,-1012,-578,-318,114,-50,-324
2,347388,2220,207,-457,-1012,-578,-318,114,-50,-324
2,347396,2220,207,-457,-1012,-578,-318,114,-50,-324
2,347402,2221,208,-452,-1018,-587,-323,120,-54,-324
2,347409,2221,208,-452,-1018,-587,-323,120,-54,-324
2,347416,2221,208,-452,-1018,-587,-323,120,-54,-324
2,347422,2219,206,-449,-1035,-586,-328,120,-54,-324
2,347428,2219,206,-449,-1035,-586,-328,120,-54,-324
2,347436,2219,206,-449,-1035,-586,-328,120,-54,-324
2,347442,2218,207,-454,-1034,-581,-327,120,-54,-324
2,347447,2218,207,-454,-1034,-581,-327,120,-54,-324
2,347453,2218,207,-454,-1034,-581,-327,120,-54,-324
2,347459,2220,206,-453,-1022,-579,-323,120,-54,-324
2,347465,2220,206,-453,-1022,-579,-323,120,-54,-324
2,347470,2220,206,-453,-1022,-579,-323,120,-54,-324
2,347475,2220,206,-453,-1022,-579,-323,120,-54,-324
2,347482,2222,206,-455,-1013,-584,-321,120,-54,-324
2,347487,2222,206,-455,-1013,-584,-321,120,-54,-324
2,347492,2222,206,-455,-1013,-584,-321,120,-54,-324
2,347497,2222,206,-455,-1013,-584,-321,120,-54,-324
2,347503,2219,206,-457,-1010,-587,-326,120,-54,-324
2,347508,2219,206,-457,-1010,-587,-326,120,-54,-324
2,347514,2219,206,-457,-1010,-587,-326,120,-54,-324
2,347520,2219,209,-454,-1014,-578,-317,109,-51,-319
2,347526,2219,209,-454,-1014,-578,-317,109,-51,-319
2,347532,2219,209,-454,-1014,-578,-317,109,-51,-319
2,347537,2219,209,-454,-1014,-578,-317,109,-51,-319
2,347542,2218,206,-457,-1014,-577,-320,109,-51,-319
2,347547,2218,206,-457,-1014,-577,-320,109,-51,-319
2,347553,2218,206,-457,-1014,-577,-320,109,-51,-319
2,347558,2217,207,-453,-1016,-574,-332,109,-51,-319
2,347565,2217,207,-453,-1016,-574,-332,109,-51,-319
2,347571,2217,207,-453,-1016,-574,-332,109,-51,-319
2,347576,2217,207,-453,-1016,-574,-332,109,-51,-319
2,347582,2219,205,-455,-1021,-582,-328,109,-51,-319
2,347587,2219,205,-455,-1021,-582,-328,109,-51,-319
2,347592,2219,205,-455,-1021,-582,-328,109,-51,-319
2,347597,2219,205,-455,-1021,-582,-328,109,-51,-319
2,347602,2219,208,-452,-1018,-586,-329,109,-51,-319
2,347609,2219,208,-452,-1018,-586,-329,109,-51,-319
2,347615,2219,208,-452,-1018,-586,-329,109,-51,-319
2,347621,2218,205,-449,-1019,-590,-333,109,-51,-319
2,347626,2218,205,-449,-1019,-590,-333,109,-51,-319
2,347633,2218,205,-449,-1019,-590,-333,109,-51,-319
2,347638,2219,205,-452,-1013,-583,-322,109,-51,-319
2,347644,2219,205,-452,-1013,-583,-322,109,-51,-319
2,347650,2219,205,-452,-1013,-583,-322,109,-51,-319
2,347655,2219,205,-452,-1013,-583,-322,109,-51,-319
2,347662,2220,205,-449,-1021,-585,-326,115,-55,-327
2,347668,2220,205,-449,-1021,-585,-326,115,-55,-327
2,347673,2220,205,-449,-1021,-585,-326,115,-55,-327
2,347679,2219,207,-449,-1013,-582,-323,115,-55,-327
2,347684,2219,207,-449,-1013,-582,-323,115,-55,-327
2,347689,2219,207,-449,-1013,-582,-323,115,-55,-327
2,347696,2219,207,-449,-1013,-582,-323,115,-55,-327
2,347701,2218,203,-456,-1021,-578,-318,115,-55,-327
2,347707,2218,203,-456,-1021,-578,-318,115,-55,-327
2,347712,2218,203,-456,-1021,-578,-318,115,-55,-327
2,347717,2218,203,-456,-1021,-578,-318,115,-55,-327
2,347723,2221,202,-454,-1018,-583,-315,115,-55,-327
2,347729,2221,202,-454,-1018,-583,-315,115,-55,-327
2,347735,2221,202,-454,-1018,-583,-315,115,-55,-327
2,347741,2219,207,-459,-1028,-581,-318,115,-55,-327
2,347746,2219,207,-459,-1028,-581,-318,115,-55,-327
2,347751,2219,207,-459,-1028,-581,-318,115,-55,-327
2,347757,2219,207,-459,-1028,-581,-318,115,-55,-327
2,347763,2220,207,-454,-1022,-583,-321,115,-55,-327
2,347769,2220,207,-454,-1022,-583,-321,115,-55,-327
2,347776,2220,207,-454,-1022,-583,-321,115,-55,-327
2,347782,2222,204,-449,-1015,-582,-318,110,-48,-324
2,347789,2222,204,-449,-1015,-582,-318,110,-48,-324
2,347794,2222,204,-449,-1015,-582,-318,110,-48,-324
2,347800,2221,207,-459,-1014,-587,-326,110,-48,-324
2,347806,2221,207,-459,-1014,-587,-326,110,-48,-324
2,347811,2221,207,-459,-1014,-587,-326,110,-48,-324
2,347816,2221,207,-459,-1014,-587,-326,110,-48,-324
2,347823,2222,202,-458,-1016,-587,-323,110,-48,-324
2,347829,2222,202,-458,-1016,-587,-323,110,-48,-324
2,347835,2222,202,-458,-1016,-587,-323,110,-48,-324
2,347841,2218,208,-460,-1019,-588,-318,110,-48,-324
2,347846,2218,208,-460,-1019,-588,-318,110,-48,-324
2,347851,2218,208,-460,-1019,-588,-318,110,-48,-324
2,347856,2218,208,-460,-1019,-588,-318,110,-48,-324
2,347863,2216,206,-456,-1020,-578,-320,110,-48,-324
2,347869,2216,206,-456,-1020,-578,-320,110,-48,-324
2,347875,2216,206,-456,-1020,-578,-320,110,-48,-324
2,347880,2219,206,-456,-1020,-579,-322,110,-48,-324
2,347885,2219,206,-456,-1020,-579,-322,110,-48,-324
2,347891,2219,206,-456,-1020,-579,-322,110,-48,-324
2,347896,2219,206,-456,-1020,-579,-322,110,-48,-324
2,347904,2217,208,-452,-1024,-586,-322,127,-59,-325
2,347910,2217,208,-452,-1024,-586,-322,127,-59,-325
2,347915,2217,208,-452,-1024,-586,-322,127,-59,-325
2,347920,2216,205,-453,-1021,-585,-321,127,-59,-325
2,347925,2216,205,-453,-1021,-585,-321,127,-59,-325
2,347931,2216,205,-453,-1021,-585,-321,127,-59,-325
2,347936,2216,205,-453,-1021,-585,-321,127,-59,-325
2,347942,2220,205,-451,-1023,-582,-319,127,-59,-325
2,347949,2220,205,-451,-1023,-582,-319,127,-59,-325
2,347954,2220,205,-451,-1023,-582,-319,127,-59,-325
2,347961,2219,205,-459,-1015,-586,-331,127,-59,-325
2,347967,2219,205,-459,-1015,-586,-331,127,-59,-325
2,347973,2219,205,-459,-1015,-586,-331,127,-59,-325
2,347978,2220,203,-450,-1015,-584,-326,127,-59,-325
2,347984,2220,203,-450,-1015,-584,-326,127,-59,-325
2,347990,2220,203,-450,-1015,-584,-326,127,-59,-325
2,347996,2220,203,-450,-1015,-584,-326,127,-59,-325
2,348001,2217,204,-455,-1023,-586,-324,127,-59,-325
2,348007,2217,204,-455,-1023,-586,-324,127,-59,-325
2,348013,2217,204,-455,-1023,-586,-324,127,-59,-325
2,348018,2217,204,-455,-1023,-586,-324,127,-59,-325
2,348024,2219,208,-452,-1027,-584,-325,127,-59,-325
2,348030,2219,208,-452,-1027,-584,-325,127,-59,-325
2,348037,2219,208,-452,-1027,-584,-325,127,-59,-325
2,348042,2219,204,-456,-1016,-583,-322,116,-50,-326
2,348047,2219,204,-456,-1016,-583,-322,116,-50,-326
2,348053,2219,204,-456,-1016,-583,-322,116,-50,-326
2,348059,2219,203,-455,-1012,-578,-323,116,-50,-326
2,348064,2219,203,-455,-1012,-578,-323,116,-50,-326
2,348070,2219,203,-455,-1012,-578,-323,116,-50,-326
2,348077,2219,203,-455,-1012,-578,-323,116,-50,-326
2,348083,2218,208,-457,-1022,-573,-332,116,-50,-326
2,348088,2218,208,-457,-1022,-573,-332,116,-50,-326
2,348095,2218,208,-457,-1022,-573,-332,116,-50,-326
2,348100,2217,206,-452,-1018,-583,-330,116,-50,-326
2,348106,2217,206,-452,-1018,-583,-330,116,-50,-326
2,348111,2217,206,-452,-1018,-583,-330,116,-50,-326
2,348116,2217,206,-452,-1018,-583,-330,116,-50,-326
2,348123,2220,205,-454,-1021,-586,-326,116,-50,-326
2,348128,2220,205,-454,-1021,-586,-326,116,-50,-326
2,348134,2220,205,-454,-1021,-586,-326,116,-50,-326
2,348139,2220,205,-454,-1020,-582,-325,116,-50,-326
2,348144,2220,205,-454,-1020,-582,-325,116,-50,-326
2,348150,2220,205,-454,-1020,-582,-325,116,-50,-326
2,348155,2220,205,-454,-1020,-582,-325,116,-50,-326
2,348162,2219,207,-454,-1020,-585,-324,109,-59,-317
2,348167,2219,207,-454,-1020,-585,-324,109,-59,-317
2,348173,2219,207,-454,-1020,-585,-324,109,-59,-317
2,348179,2219,207,-454,-1020,-585,-324,109,-59,-317
2,348184,2215,206,-453,-1029,-578,-321,109,-59,-317
2,348189,2215,206,-453,-1029,-578,-321,109,-59,-317
2,348195,2215,206,-453,-1029,-578,-321,109,-59,-317
2,348200,2219,205,-455,-1023,-582,-318,109,-59,-317
2,348207,2219,205,-455,-1023,-582,-318,109,-59,-317
2,348213,2219,205,-455,-1023,-582,-318,109,-59,-317
2,348218,2219,205,-455,-1023,-582,-318,109,-59,-317
2,348223,2219,206,-453,-1015,-581,-320,109,-59,-317
2,348228,2219,206,-453,-1015,-581,-320,109,-59,-317
2,348233,2219,206,-453,-1015,-581,-320,109,-59,-317
2,348239,2218,206,-455,-1014,-577,-325,109,-59,-317
2,348244,2218,206,-455,-1014,-577,-325,109,-59,-317
2,348251,2218,206,-455,-1014,-577,-325,109,-59,-317
2,348257,2218,206,-455,-1014,-577,-325,109,-59,-317
2,348262,2219,206,-454,-1016,-592,-322,109,-59,-317
2,348267,2219,206,-454,-1016,-592,-322,109,-59,-317
2,348273,2219,206,-454,-1016,-592,-322,109,-59,-317
2,348279,2219,206,-454,-1016,-592,-322,109,-59,-317
2,348284,2219,206,-454,-1016,-592,-322,109,-59,-317
2,348291,2219,206,-454,-1016,-592,-322,109,-59,-317
2,348296,2219,206,-454,-1016,-592,-322,109,-59,-317
2,348302,2219,205,-452,-1021,-589,-322,117,-55,-321
2,348307,2219,205,-452,-1021,-589,-322,117,-55,-321
2,348313,2219,205,-452,-1021,-589,-322,117,-55,-321
2,348318,2219,205,-452,-1021,-589,-322,117,-55,-321
2,348324,2217,203,-453,-1018,-584,-320,117,-55,-321
2,348329,2217,203,-453,-1018,-584,-320,117,-55,-321
2,348335,2217,203,-453,-1018,-584,-320,117,-55,-321
2,348340,2221,205,-460,-1028,-577,-327,117,-55,-321
2,348346,2221,205,-460,-1028,-577,-327,117,-55,-321
2,348351,2221,205,-460,-1028,-577,-327,117,-55,-321
2,348356,2221,205,-460,-1028,-577,-327,117,-55,-321
2,348362,2216,208,-456,-1020,-579,-323,117,-55,-321
2,348367,2216,208,-456,-1020,-579,-323,117,-55,-321
2,348372,2216,208,-456,-1020,-579,-323,117,-55,-321
2,348379,2216,208,-456,-1020,-579,-323,117,-55,-321
2,348384,2217,206,-457,-1028,-588,-326,117,-55,-321
2,348389,2217,206,-457,-1028,-588,-326,117,-55,-321
2,348395,2217,206,-457,-1028,-588,-326,117,-55,-321
2,348399,2222,205,-460,-1019,-583,-319,117,-55,-321
2,348404,2222,205,-460,-1019,-583,-319,117,-55,-321
2,348410,2222,205,-460,-1019,-583,-319,117,-55,-321
2,348416,2222,205,-460,-1019,-583,-319,117,-55,-321
2,348421,2220,208,-448,-1016,-582,-317,124,-54,-318
2,348426,2220,208,-448,-1016,-582,-317,124,-54,-318
2,348432,2220,208,-448,-1016,-582,-317,124,-54,-318
2,348437,2220,208,-448,-1016,-582,-317,124,-54,-318
2,348443,2219,206,-457,-1023,-574,-328,124,-54,-318
2,348448,2219,206,-457,-1023,-574,-328,124,-54,-318
2,348454,2219,206,-457,-1023,-574,-328,124,-54,-318
2,348460,2219,208,-459,-1015,-579,-332,124,-54,-318
2,348465,2219,208,-459,-1015,-579,-332,124,-54,-318
2,348470,2219,208,-459,-1015,-579,-332,124,-54,-318
2,348475,2219,208,-459,-1015,-579,-332,124,-54,-318
2,348480,2217,206,-456,-1021,-580,-326,124,-54,-318
2,348486,2217,206,-456,-1021,-580,-326,124,-54,-318
2,348491,2217,206,-456,-1021,-580,-326,124,-54,-318
2,348497,2217,206,-456,-1021,-580,-326,124,-54,-318
2,348504,2218,206,-456,-1019,-586,-329,124,-54,-318
2,348509,2218,206,-456,-1019,-586,-329,124,-54,-318
2,348514,2218,206,-456,-1019,-586,-329,124,-54,-318
2,348519,2218,206,-456,-1019,-586,-329,124,-54,-318
2,348524,2220,205,-457,-1019,-582,-317,124,-54,-318
2,348529,2220,205,-457,-1019,-582,-317,124,-54,-318
2,348535,2220,205,-457,-1019,-582,-317,124,-54,-318
2,348540,2219,203,-454,-1020,-581,-323,118,-54,-320
2,348546,2219,203,-454,-1020,-581,-323,118,-54,-320
2,348552,2219,203,-454,-1020,-581,-323,118,-54,-320
2,348557,2219,203,-454,-1020,-581,-323,118,-54,-320
2,348562,2220,204,-454,-1025,-580,-319,118,-54,-320
2,348570,2220,204,-454,-1025,-580,-319,118,-54,-320
2,348575,2220,204,-454,-1025,-580,-319,118,-54,-320
2,348581,2220,203,-458,-1022,-581,-326,118,-54,-320
2,348587,2220,203,-458,-1022,-581,-326,118,-54,-320
2,348592,2220,203,-458,-1022,-581,-326,118,-54,-320
2,348597,2220,203,-458,-1022,-581,-326,118,-54,-320
2,348603,2220,210,-452,-1024,-586,-334,118,-54,-320
2,348608,2220,210,-452,-1024,-586,-334,118,-54,-320
2,348614,2220,210,-452,-1024,-586,-334,118,-54,-320
2,348619,2218,207,-454,-1021,-586,-324,118,-54,-320
2,348624,2218,207,-454,-1021,-586,-324,118,-54,-320
2,348631,2218,207,-454,-1021,-586,-324,118,-54,-320
2,348636,2218,207,-454,-1021,-586,-324,118,-54,-320
2,348641,2218,209,-458,-1021,-585,-321,118,-54,-320
2,348647,2218,209,-458,-1021,-585,-321,118,-54,-320
2,348652,2218,209,-458,-1021,-585,-321,118,-54,-320
2,348658,2218,209,-458,-1021,-585,-321,118,-54,-320
2,348663,2217,206,-457,-1017,-582,-324,118,-54,-320
2,348668,2217,206,-457,-1017,-582,-324,118,-54,-320
2,348675,2217,206,-457,-1017,-582,-324,118,-54,-320
2,348680,2217,207,-448,-1020,-580,-325,118,-54,-320
2,348685,2217,207,-448,-1020,-580,-325,113,-53,-315
2,348690,2217,207,-448,-1020,-580,-325,113,-53,-315
2,348696,2217,207,-448,-1020,-580,-325,113,-53,-315
2,348701,2215,203,-454,-1023,-579,-328,113,-53,-315
2,348706,2215,203,-454,-1023,-579,-328,113,-53,-315
2,348712,2215,203,-454,-1023,-579,-328,113,-53,-315
2,348718,2215,203,-454,-1023,-579,-328,113,-53,-315
2,348724,2220,203,-452,-1021,-573,-327,113,-53,-315
2,348730,2220,203,-452,-1021,-573,-327,113,-53,-315
2,348736,2220,203,-452,-1021,-573,-327,113,-53,-315
2,348740,2220,207,-455,-1020,-584,-329,113,-53,-315
2,348746,2220,207,-455,-1020,-584,-329,113,-53,-315
2,348750,2220,207,-455,-1020,-584,-329,113,-53,-315
2,348756,2220,207,-455,-1020,-584,-329,113,-53,-315
2,348763,2219,205,-454,-1023,-581,-321,113,-53,-315
2,348768,2219,205,-454,-1023,-581,-321,113,-53,-315
2,348772,2219,205,-454,-1023,-581,-321,113,-53,-315
2,348778,2219,205,-454,-1023,-581,-321,113,-53,-315
2,348783,2219,205,-454,-1023,-581,-321,113,-53,-315
2,348788,2219,205,-454,-1023,-581,-321,113,-53,-315
2,348793,2219,205,-454,-1023,-581,-321,113,-53,-315
2,348798,2219,205,-454,-1023,-581,-321,113,-53,-315
2,348805,2219,206,-451,-1027,-592,-326,114,-54,-312
2,348810,2219,206,-451,-1027,-592,-326,114,-54,-312
2,348816,2219,206,-451,-1027,-592,-326,114,-54,-312
2,348821,2217,208,-457,-1021,-592,-317,114,-54,-312
2,348826,2217,208,-457,-1021,-592,-317,114,-54,-312
2,348831,2217,208,-457,-1021,-592,-317,114,-54,-312
2,348837,2217,208,-457,-1021,-592,-317,114,-54,-312
2,348843,2218,203,-453,-1028,-586,-314,114,-54,-312
2,348848,2218,203,-453,-1028,-586,-314,114,-54,-312
2,348853,2218,203,-453,-1028,-586,-314,114,-54,-312
2,348858,2218,203,-453,-1028,-586,-314,114,-54,-312
2,348863,2216,205,-454,-1019,-583,-318,114,-54,-312
2,348868,2216,205,-454,-1019,-583,-318,114,-54,-312
2,348874,2216,205,-454,-1019,-583,-318,114,-54,-312
2,348879,2220,205,-458,-1022,-580,-316,114,-54,-312
2,348886,2220,205,-458,-1022,-580,-316,114,-54,-312
2,348891,2220,205,-458,-1022,-580,-316,114,-54,-312
2,348896,2220,205,-458,-1022,-580,-316,114,-54,-312
2,348902,2215,211,-451,-1023,-586,-322,114,-54,-312
2,348907,2215,211,-451,-1023,-586,-322,114,-54,-312
2,348912,2215,211,-451,-1023,-586,-322,114,-54,-312
2,348918,2215,211,-451,-1023,-586,-322,114,-54,-312
2,348923,2214,208,-457,-1016,-581,-324,114,-54,-312
2,348930,2214,208,-457,-1016,-581,-324,114,-54,-312
2,348936,2214,208,-457,-1016,-581,-324,114,-54,-312
2,348941,2218,208,-451,-1014,-584,-322,113,-63,-323
2,348946,2218,208,-451,-1014,-584,-322,113,-63,-323
2,348952,2218,208,-451,-1014,-584,-322,113,-63,-323
2,348956,2218,208,-451,-1014,-584,-322,113,-63,-323
2,348962,2218,205,-449,-1019,-578,-324,113,-63,-323
2,348967,2218,205,-449,-1019,-578,-324,113,-63,-323
2,348973,2218,205,-449,-1019,-578,-324,113,-63,-323
2,348980,2218,205,-449,-1019,-578,-324,113,-63,-323
2,348985,2220,205,-456,-1020,-585,-321,113,-63,-323
2,348991,2220,205,-456,-1020,-585,-321,113,-63,-323
2,348997,2220,205,-456,-1020,-585,-321,113,-63,-323
2,349004,2217,203,-450,-1020,-589,-324,113,-63,-323
2,349011,2217,203,-450,-1020,-589,-324,113,-63,-323
2,349018,2217,203,-450,-1020,-589,-324,113,-63,-323
2,349024,2219,204,-457,-1015,-586,-318,113,-63,-323
2,349030,2219,204,-457,-1015,-586,-318,113,-63,-323
2,349036,2219,204,-457,-1015,-586,-318,113,-63,-323
2,349042,2221,207,-461,-1024,-584,-320,113,-63,-323
2,349048,2221,207,-461,-1024,-584,-320,113,-63,-323
2,349053,2221,207,-461,-1024,-584,-320,113,-63,-323
2,349060,2221,207,-461,-1024,-584,-320,113,-63,-323
2,349065,2219,206,-453,-1023,-581,-326,111,-53,-325
2,349071,2219,206,-453,-1023,-581,-326,111,-53,-325
2,349076,2219,206,-453,-1023,-581,-326,111,-53,-325
2,349081,2220,206,-450,-1024,-582,-321,111,-53,-325
2,349087,2220,206,-450,-1024,-582,-321,111,-53,-325
2,349092,2220,206,-450,-1024,-582,-321,111,-53,-325
2,349097,2220,206,-450,-1024,-582,-321,111,-53,-325
2,349104,2219,207,-452,-1025,-584,-317,111,-53,-325
2,349109,2219,207,-452,-1025,-584,-317,111,-53,-325
2,349114,2219,207,-452,-1025,-584,-317,111,-53,-325
2,349120,2219,207,-452,-1025,-584,-317,111,-53,-325
2,349125,2217,207,-454,-1020,-593,-327,111,-53,-325
2,349130,2217,207,-454,-1020,-593,-327,111,-53,-325
2,349136,2217,207,-454,-1020,-593,-327,111,-53,-325
2,349140,2221,209,-454,-1023,-584,-323,111,-53,-325
2,349147,2221,209,-454,-1023,-584,-323,111,-53,-325
2,349152,2221,209,-454,-1023,-584,-323,111,-53,-325
2,349157,2221,209,-454,-1023,-584,-323,111,-53,-325
2,349162,2219,209,-448,-1023,-584,-326,111,-53,-325
2,349168,2219,209,-448,-1023,-584,-326,111,-53,-325
2,349173,2219,209,-448,-1023,-584,-326,111,-53,-325
2,349178,2219,209,-448,-1023,-584,-326,111,-53,-325
2,349185,2219,206,-452,-1017,-581,-321,114,-48,-322
2,349190,2219,206,-452,-1017,-581,-321,114,-48,-322
2,349195,2219,206,-452,-1017,-581,-321,114,-48,-322
2,349201,2217,209,-456,-1025,-580,-325,114,-48,-322
2,349206,2217,209,-456,-1025,-580,-325,114,-48,-322
2,349211,2217,209,-456,-1025,-580,-325,114,-48,-322
2,349217,2217,209,-456,-1025,-580,-325,114,-48,-322
2,349222,2220,207,-451,-1022,-582,-314,114,-48,-322
2,349229,2220,207,-451,-1022,-582,-314,114,-48,-322
2,349235,2220,207,-451,-1022,-582,-314,114,-48,-322
2,349240,2220,207,-451,-1022,-582,-314,114,-48,-322
2,349245,2218,206,-456,-1018,-578,-326,114,-48,-322
2,349251,2218,206,-456,-1018,-578,-326,114,-48,-322
2,349256,2218,206,-456,-1018,-578,-326,114,-48,-322
2,349261,2218,205,-456,-1012,-578,-325,114,-48,-322
2,349267,2218,205,-456,-1012,-578,-325,114,-48,-322
2,349273,2218,205,-456,-1012,-578,-325,114,-48,-322
2,349279,2218,205,-456,-1012,-578,-325,114,-48,-322
2,349284,2218,203,-453,-1013,-582,-320,114,-48,-322
2,349290,2218,203,-453,-1013,-582,-320,114,-48,-322
2,349295,2218,203,-453,-1013,-582,-320,114,-48,-322
2,349300,2219,205,-454,-1021,-591,-319,114,-48,-322
2,349305,2219,205,-454,-1021,-591,-319,114,-48,-322
2,349312,2219,205,-454,-1021,-591,-319,114,-48,-322
2,349317,2219,205,-454,-1021,-591,-319,114,-48,-322
2,349323,2218,207,-449,-1018,-578,-327,115,-55,-319
2,349328,2218,207,-449,-1018,-578,-327,115,-55,-319
2,349333,2218,207,-449,-1018,-578,-327,115,-55,-319
2,349338,2218,207,-449,-1018,-578,-327,115,-55,-319
2,349344,2218,205,-457,-1023,-575,-328,115,-55,-319
2,349349,2218,205,-457,-1023,-575,-328,115,-55,-319
2,349355,2218,205,-457,-1023,-575,-328,115,-55,-319
2,349360,2218,205,-457,-1023,-575,-328,115,-55,-319
2,349366,2220,205,-456,-1022,-579,-324,115,-55,-319
2,349371,2220,205,-456,-1022,-579,-324,115,-55,-319
2,349377,2220,205,-456,-1022,-579,-324,115,-55,-319
2,349382,2220,205,-456,-1017,-581,-328,115,-55,-319
2,349387,2220,205,-456,-1017,-581,-328,115,-55,-319
2,349393,2220,205,-456,-1017,-581,-328,115,-55,-319
2,349399,2220,205,-456,-1017,-581,-328,115,-55,-319
2,349404,2220,204,-451,-1019,-584,-328,115,-55,-319
2,349410,2220,204,-451,-1019,-584,-328,115,-55,-319
2,349415,2220,204,-451,-1019,-584,-328,115,-55,-319
2,349421,2218,203,-456,-1019,-580,-320,115,-55,-319
2,349428,2218,203,-456,-1019,-580,-320,115,-55,-319
2,349433,2218,203,-456,-1019,-580,-320,115,-55,-319
2,349438,2218,203,-456,-1019,-580,-320,115,-55,-319
2,349445,2217,205,-456,-1017,-588,-323,121,-51,-317
2,349450,2217,205,-456,-1017,-588,-323,121,-51,-317
2,349455,2217,205,-456,-1017,-588,-323,121,-51,-317
2,349461,2217,207,-449,-1021,-585,-327,121,-51,-317
2,349466,2217,207,-449,-1021,-585,-327,121,-51,-317
2,349471,2217,207,-449,-1021,-585,-327,121,-51,-317
2,349476,2217,207,-449,-1021,-585,-327,121,-51,-317
2,349481,2219,205,-452,-1016,-581,-326,121,-51,-317
2,349487,2219,205,-452,-1016,-581,-326,121,-51,-317
2,349493,2219,205,-452,-1016,-581,-326,121,-51,-317
2,349498,2219,205,-452,-1016,-581,-326,121,-51,-317
2,349503,2223,206,-455,-1015,-582,-325,121,-51,-317
2,349508,2223,206,-455,-1015,-582,-325,121,-51,-317
2,349514,2223,206,-455,-1015,-582,-325,121,-51,-317
2,349519,2223,206,-455,-1015,-582,-325,121,-51,-317
2,349524,2217,207,-459,-1019,-582,-324,121,-51,-317
2,349531,2217,207,-459,-1019,-582,-324,121,-51,-317
2,349537,2217,207,-459,-1019,-582,-324,121,-51,-317
2,349542,2221,206,-452,-1015,-579,-326,121,-51,-317
2,349547,2221,206,-452,-1015,-579,-326,121,-51,-317
2,349552,2221,206,-452,-1015,-579,-326,121,-51,-317
2,349557,2221,206,-452,-1015,-579,-326,121,-51,-317
2,349563,2220,203,-454,-1012,-580,-320,121,-51,-317
2,349570,2220,203,-454,-1012,-580,-320,121,-51,-317
2,349575,2220,203,-454,-1012,-580,-320,121,-51,-317
2,349580,2220,203,-454,-1012,-580,-320,121,-51,-317
2,349585,2219,204,-449,-1010,-574,-333,115,-49,-321
2,349591,2219,204,-449,-1010,-574,-333,115,-49,-321
2,349596,2219,204,-449,-1010,-574,-333,115,-49,-321
2,349601,2214,208,-457,-1014,-583,-327,115,-49,-321
2,349607,2214,208,-457,-1014,-583,-327,115,-49,-321
2,349613,2214,208,-457,-1014,-583,-327,115,-49,-321
2,349618,2214,208,-457,-1014,-583,-327,115,-49,-321
2,349624,2218,208,-456,-1017,-586,-327,115,-49,-321
2,349629,2218,208,-456,-1017,-586,-327,115,-49,-321
2,349634,2218,208,-456,-1017,-586,-327,115,-49,-321
2,349640,2218,208,-456,-1017,-586,-327,115,-49,-321
2,349645,2218,207,-454,-1016,-588,-327,115,-49,-321
2,349650,2218,207,-454,-1016,-588,-327,115,-49,-321
2,349656,2218,207,-454,-1016,-588,-327,115,-49,-321
2,349661,2218,204,-454,-1021,-588,-330,115,-49,-321
2,349666,2218,204,-454,-1021,-588,-330,115,-49,-321
2,349672,2218,204,-454,-1021,-588,-330,115,-49,-321
2,349677,2218,204,-454,-1021,-588,-330,115,-49,-321
2,349683,2219,204,-455,-1023,-586,-322,115,-49,-321
2,349688,2219,204,-455,-1023,-586,-322,115,-49,-321
2,349694,2219,204,-455,-1023,-586,-322,115,-49,-321
2,349700,2219,204,-455,-1023,-586,-322,115,-49,-321
2,349705,2219,207,-453,-1017,-577,-319,125,-53,-321
2,349711,2219,207,-453,-1017,-577,-319,125,-53,-321
2,349716,2219,207,-453,-1017,-577,-319,125,-53,-321
2,349721,2217,205,-453,-1018,-579,-331,125,-53,-321
2,349727,2217,205,-453,-1018,-579,-331,125,-53,-321
2,349732,2217,205,-453,-1018,-579,-331,125,-53,-321
2,349737,2217,205,-453,-1018,-579,-331,125,-53,-321
2,349744,2220,208,-453,-1023,-587,-324,125,-53,-321
2,349749,2220,208,-453,-1023,-587,-324,125,-53,-321
2,349754,2220,208,-453,-1023,-587,-324,125,-53,-321
2,349759,2220,208,-453,-1023,-587,-324,125,-53,-321
2,349765,2219,204,-459,-1021,-584,-324,125,-53,-321
2,349770,2219,204,-459,-1021,-584,-324,125,-53,-321
2,349776,2219,204,-459,-1021,-584,-324,125,-53,-321
2,349782,2218,204,-454,-1024,-584,-326,125,-53,-321
2,349787,2218,204,-454,-1024,-584,-326,125,-53,-321
2,349793,2218,204,-454,-1024,-584,-326,125,-53,-321
2,349797,2218,204,-454,-1024,-584,-326,125,-53,-321
2,349803,2221,203,-454,-1017,-580,-323,125,-53,-321
2,349808,2221,203,-454,-1017,-580,-323,125,-53,-321
2,349814,2221,203,-454,-1017,-580,-323,125,-53,-321
2,349818,2221,203,-454,-1017,-580,-323,125,-53,-321
2,349825,2218,206,-453,-1025,-585,-322,108,-48,-316
2,349830,2218,206,-453,-1025,-585,-322,108,-48,-316
2,349836,2218,206,-453,-1025,-585,-322,108,-48,-316
2,349841,2221,207,-449,-1017,-587,-316,108,-48,-316
2,349847,2221,207,-449,-1017,-587,-316,108,-48,-316
2,349852,2221,207,-449,-1017,-587,-316,108,-48,-316
2,349858,2221,207,-449,-1017,-587,-316,108,-48,-316
2,349863,2219,205,-454,-1018,-588,-323,108,-48,-316
2,349871,2219,205,-454,-1018,-588,-323,108,-48,-316
2,349877,2219,205,-454,-1018,-588,-323,108,-48,-316
2,349883,2218,208,-451,-1023,-586,-319,108,-48,-316
2,349889,2218,208,-451,-1023,-586,-319,108,-48,-316
2,349895,2218,208,-451,-1023,-586,-319,108,-48,-316
2,349901,2219,207,-453,-1021,-585,-326,108,-48,-316
2,349906,2219,207,-453,-1021,-585,-326,108,-48,-316
2,349913,2219,207,-453,-1021,-585,-326,108,-48,-316
2,349919,2219,207,-453,-1021,-585,-326,108,-48,-316
2,349925,2218,206,-455,-1020,-584,-317,108,-48,-316
2,349932,2218,206,-455,-1020,-584,-317,108,-48,-316
2,349938,2218,206,-455,-1020,-584,-317,108,-48,-316
2,349946,2219,208,-454,-1021,-581,-316,108,-48,-316
2,349953,2219,208,-454,-1021,-581,-316,108,-48,-316
2,349958,2219,208,-454,-1021,-581,-316,108,-48,-316
2,349964,2220,205,-454,-1014,-581,-324,109,-59,-321
2,349970,2220,205,-454,-1014,-581,-324,109,-59,-321
2,349975,2220,205,-454,-1014,-581,-324,109,-59,-321
2,349981,2220,205,-454,-1014,-581,-324,109,-59,-321
2,349986,2222,206,-453,-1017,-584,-315,109,-59,-321
2,349991,2222,206,-453,-1017,-584,-315,109,-59,-321
2,349997,2222,206,-453,-1017,-584,-315,109,-59,-321
2,350004,2218,204,-452,-1015,-590,-319,109,-59,-321
2,350010,2218,204,-452,-1015,-590,-319,109,-59,-321
2,350016,2218,204,-452,-1015,-590,-319,109,-59,-321
2,350021,2219,203,-453,-1024,-585,-328,109,-59,-321
2,350027,2219,203,-453,-1024,-585,-328,109,-59,-321
2,350033,2219,203,-453,-1024,-585,-328,109,-59,-321
2,350040,2219,203,-453,-1024,-585,-328,109,-59,-321
2,350046,2218,203,-459,-1018,-584,-322,109,-59,-321
2,350051,2218,203,-459,-1018,-584,-322,109,-59,-321
2,350057,2218,203,-459,-1018,-584,-322,109,-59,-321
2,350064,2219,202,-458,-1027,-584,-317,109,-59,-321
2,350071,2219,202,-458,-1027,-584,-317,109,-59,-321
2,350077,2219,202,-458,-1027,-584,-317,109,-59,-321
2,350084,2219,204,-452,-1026,-585,-322,114,-48,-322
2,350089,2219,204,-452,-1026,-585,-322,114,-48,-322
2,350095,2219,204,-452,-1026,-585,-322,114,-48,-322
2,350100,2219,204,-452,-1026,-585,-322,114,-48,-322
2,350107,2218,204,-453,-1029,-591,-323,114,-48,-322
2,350114,2218,204,-453,-1029,-591,-323,114,-48,-322
2,350120,2218,204,-453,-1029,-591,-323,114,-48,-322
2,350127,2217,202,-453,-1021,-589,-328,114,-48,-322
2,350133,2217,202,-453,-1021,-589,-328,114,-48,-322
2,350139,2217,202,-453,-1021,-589,-328,114,-48,-322
2,350145,2217,202,-453,-1021,-589,-328,114,-48,-322
2,350150,2217,202,-453,-1021,-589,-328,114,-48,-322
2,350155,2217,202,-453,-1021,-589,-328,114,-48,-322
2,350160,2217,202,-453,-1021,-589,-328,114,-48,-322
2,350167,2218,205,-451,-1013,-583,-325,114,-48,-322
2,350172,2218,205,-451,-1013,-583,-325,114,-48,-322
2,350177,2218,205,-451,-1013,-583,-325,114,-48,-322
2,350183,2217,205,-460,-1022,-577,-325,114,-48,-322
2,350188,2217,205,-460,-1022,-577,-325,114,-48,-322
2,350193,2217,205,-460,-1022,-577,-325,114,-48,-322
2,350198,2217,205,-460,-1022,-577,-325,114,-48,-322
2,350204,2219,205,-460,-1020,-578,-328,114,-48,-322
2,350210,2219,205,-460,-1020,-578,-328,114,-48,-322
2,350215,2219,205,-460,-1020,-578,-328,114,-48,-322
2,350221,2219,205,-460,-1020,-578,-328,114,-48,-322
2,350225,2219,208,-454,-1019,-573,-326,111,-61,-321
2,350231,2219,208,-454,-1019,-573,-326,111,-61,-321
2,350236,2219,208,-454,-1019,-573,-326,111,-61,-321
2,350242,2217,206,-456,-1006,-580,-327,111,-61,-321
2,350248,2217,206,-456,-1006,-580,-327,111,-61,-321
2,350254,2217,206,-456,-1006,-580,-327,111,-61,-321
2,350259,2217,206,-456,-1006,-580,-327,111,-61,-321
2,350265,2216,205,-456,-1014,-578,-324,111,-61,-321
2,350271,2216,205,-456,-1014,-578,-324,111,-61,-321
2,350276,2216,205,-456,-1014,-578,-324,111,-61,-321
2,350281,2216,205,-456,-1014,-578,-324,111,-61,-321
2,350286,2220,206,-458,-1014,-583,-322,111,-61,-321
2,350291,2220,206,-458,-1014,-583,-322,111,-61,-321
2,350297,2220,206,-458,-1014,-583,-322,111,-61,-321
2,350303,2220,205,-453,-1019,-587,-323,111,-61,-321
2,350308,2220,205,-453,-1019,-587,-323,111,-61,-321
2,350314,2220,205,-453,-1019,-587,-323,111,-61,-321
2,350319,2220,205,-453,-1019,-587,-323,111,-61,-321
2,350325,2219,208,-454,-1022,-590,-326,111,-61,-321
2,350330,2219,208,-454,-1022,-590,-326,111,-61,-321
2,350337,2219,208,-454,-1022,-590,-326,111,-61,-321
2,350342,2219,208,-454,-1022,-590,-326,111,-61,-321
2,350347,2220,204,-453,-1015,-583,-323,114,-46,-314
2,350352,2220,204,-453,-1015,-583,-323,114,-46,-314
2,350358,2220,204,-453,-1015,-583,-323,114,-46,-314
2,350363,2222,206,-450,-1022,-581,-320,114,-46,-314
2,350369,2222,206,-450,-1022,-581,-320,114,-46,-314
2,350374,2222,206,-450,-1022,-581,-320,114,-46,-314
2,350380,2222,206,-450,-1022,-581,-320,114,-46,-314
2,350386,2219,204,-455,-1025,-581,-327,114,-46,-314
2,350391,2219,204,-455,-1025,-581,-327,114,-46,-314
2,350396,2219,204,-455,-1025,-581,-327,114,-46,-314
2,350401,2219,204,-455,-1025,-581,-327,114,-46,-314
2,350407,2220,205,-460,-1023,-584,-327,114,-46,-314
2,350412,2220,205,-460,-1023,-584,-327,114,-46,-314
2,350417,2220,205,-460,-1023,-584,-327,114,-46,-314
2,350424,2221,204,-455,-1022,-578,-326,114,-46,-314
2,350430,2221,204,-455,-1022,-578,-326,114,-46,-314
2,350435,2221,204,-455,-1022,-578,-326,114,-46,-314
2,350440,2221,204,-455,-1022,-578,-326,114,-46,-314
2,350446,2220,202,-458,-1015,-587,-319,114,-46,-314
2,350452,2220,202,-458,-1015,-587,-319,114,-46,-314
2,350457,2220,202,-458,-1015,-587,-319,114,-46,-314
2,350461,2220,206,-458,-1023,-589,-322,114,-46,-314
2,350468,2220,206,-458,-1023,-589,-322,115,-55,-323
2,350474,2220,206,-458,-1023,-589,-322,115,-55,-323
2,350479,2220,206,-458,-1023,-589,-322,115,-55,-323
2,350484,2219,208,-450,-1026,-587,-320,115,-55,-323
2,350489,2219,208,-450,-1026,-587,-320,115,-55,-323
2,350494,2219,208,-450,-1026,-587,-320,115,-55,-323
2,350500,2219,208,-450,-1026,-587,-320,115,-55,-323
2,350505,2220,204,-455,-1022,-587,-330,115,-55,-323
2,350512,2220,204,-455,-1022,-587,-330,115,-55,-323
2,350517,2220,204,-455,-1022,-587,-330,115,-55,-323
2,350523,2218,205,-458,-1023,-578,-327,115,-55,-323
2,350528,2218,205,-458,-1023,-578,-327,115,-55,-323
2,350534,2218,205,-458,-1023,-578,-327,115,-55,-323
2,350538,2218,205,-458,-1023,-578,-327,115,-55,-323
2,350544,2216,208,-455,-1029,-595,-327,115,-55,-323
2,350550,2216,208,-455,-1029,-595,-327,115,-55,-323
2,350556,2216,208,-455,-1029,-595,-327,115,-55,-323
2,350562,2216,208,-455,-1029,-595,-327,115,-55,-323
2,350567,2218,205,-453,-1033,-594,-329,115,-55,-323
2,350572,2218,205,-453,-1033,-594,-329,115,-55,-323
2,350577,2218,205,-453,-1033,-594,-329,115,-55,-323
2,350582,2218,205,-455,-1019,-585,-321,115,-55,-323
2,350587,2218,205,-455,-1019,-585,-321,115,-55,-323
2,350594,2218,205,-455,-1019,-585,-321,115,-55,-323
2,350599,2218,205,-455,-1019,-585,-321,115,-55,-323
2,350604,2220,206,-452,-1025,-583,-328,111,-49,-325
2,350609,2220,206,-452,-1025,-583,-328,111,-49,-325
2,350614,2220,206,-452,-1025,-583,-328,111,-49,-325
2,350620,2220,206,-452,-1025,-583,-328,111,-49,-325
2,350626,2221,208,-454,-1018,-588,-321,111,-49,-325
2,350631,2221,208,-454,-1018,-588,-321,111,-49,-325
2,350639,2221,208,-454,-1018,-588,-321,111,-49,-325
2,350644,2220,204,-451,-1013,-586,-326,111,-49,-325
2,350650,2220,204,-451,-1013,-586,-326,111,-49,-325
2,350655,2220,204,-451,-1013,-586,-326,111,-49,-325
2,350661,2220,204,-451,-1013,-586,-326,111,-49,-325
2,350666,2216,204,-460,-1022,-589,-325,111,-49,-325
2,350672,2216,204,-460,-1022,-589,-325,111,-49,-325
2,350676,2216,204,-460,-1022,-589,-325,111,-49,-325
2,350683,2218,207,-461,-1014,-580,-323,111,-49,-325
2,350688,2218,207,-461,-1014,-580,-323,111,-49,-325
2,350694,2218,207,-461,-1014,-580,-323,111,-49,-325
2,350699,2218,207,-461,-1014,-580,-323,111,-49,-325
2,350704,2222,207,-452,-1018,-582,-325,111,-49,-325
2,350709,2222,207,-452,-1018,-582,-325,111,-49,-325
2,350714,2222,207,-452,-1018,-582,-325,111,-49,-325
2,350721,2222,207,-452,-1018,-582,-325,111,-49,-325
2,350726,2217,206,-453,-1020,-586,-322,110,-68,-326
2,350731,2217,206,-453,-1020,-586,-322,110,-68,-326
2,350736,2217,206,-453,-1020,-586,-322,110,-68,-326
2,350742,2221,204,-453,-1018,-580,-319,110,-68,-326
2,350748,2221,204,-453,-1018,-580,-319,110,-68,-326
2,350754,2221,204,-453,-1018,-580,-319,110,-68,-326
2,350759,2221,204,-453,-1018,-580,-319,110,-68,-326
2,350766,2220,204,-456,-1015,-574,-324,110,-68,-326
2,350771,2220,204,-456,-1015,-574,-324,110,-68,-326
2,350776,2220,204,-456,-1015,-574,-324,110,-68,-326
2,350782,2220,204,-456,-1015,-574,-324,110,-68,-326
2,350787,2218,206,-456,-1017,-578,-323,110,-68,-326
2,350792,2218,206,-456,-1017,-578,-323,110,-68,-326
2,350797,2218,206,-456,-1017,-578,-323,110,-68,-326
2,350802,2218,206,-456,-1017,-578,-323,110,-68,-326
2,350808,2217,205,-461,-1014,-582,-324,110,-68,-326
2,350814,2217,205,-461,-1014,-582,-324,110,-68,-326
2,350819,2217,205,-461,-1014,-582,-324,110,-68,-326
2,350824,2220,207,-455,-1018,-584,-320,110,-68,-326
2,350829,2220,207,-455,-1018,-584,-320,110,-68,-326
2,350834,2220,207,-455,-1018,-584,-320,110,-68,-326
2,350839,2220,207,-455,-1018,-584,-320,110,-68,-326
2,350845,2222,205,-461,-1019,-580,-323,110,-68,-326
2,350851,2222,205,-461,-1019,-580,-323,110,-68,-326
2,350856,2222,205,-461,-1019,-580,-323,110,-68,-326
2,350862,2222,205,-461,-1019,-580,-323,110,-68,-326
2,350867,2220,207,-450,-1025,-582,-323,116,-52,-322
2,350873,2220,207,-450,-1025,-582,-323,116,-52,-322
2,350878,2220,207,-450,-1025,-582,-323,116,-52,-322
2,350883,2220,206,-458,-1022,-588,-327,116,-52,-322
2,350889,2220,206,-458,-1022,-588,-327,116,-52,-322
2,350895,2220,206,-458,-1022,-588,-327,116,-52,-322
2,350900,2220,206,-458,-1022,-588,-327,116,-52,-322
2,350906,2221,209,-454,-1021,-586,-329,116,-52,-322
2,350911,2221,209,-454,-1021,-586,-329,116,-52,-322
2,350917,2221,209,-454,-1021,-586,-329,116,-52,-322
2,350922,2221,209,-454,-1021,-586,-329,116,-52,-322
2,350926,2219,209,-454,-1022,-582,-325,116,-52,-322
2,350931,2219,209,-454,-1022,-582,-325,116,-52,-322
2,350938,2219,209,-454,-1022,-582,-325,116,-52,-322
2,350943,2219,205,-458,-1022,-579,-327,116,-52,-322
2,350948,2219,205,-458,-1022,-579,-327,116,-52,-322
2,350953,2219,205,-458,-1022,-579,-327,116,-52,-322
2,350959,2219,205,-458,-1022,-579,-327,116,-52,-322
2,350964,2220,205,-448,-1023,-585,-331,116,-52,-322
2,350969,2220,205,-448,-1023,-585,-331,116,-52,-322
2,350976,2220,205,-448,-1023,-585,-331,116,-52,-322
2,350981,2220,205,-448,-1023,-585,-331,116,-52,-322
2,350987,2218,206,-456,-1020,-586,-318,132,-54,-322
2,350992,2218,206,-456,-1020,-586,-318,132,-54,-322
2,350998,2218,206,-456,-1020,-586,-318,132,-54,-322
2,351003,2218,204,-453,-1017,-584,-325,132,-54,-322
2,351009,2218,204,-453,-1017,-584,-325,132,-54,-322
2,351014,2218,204,-453,-1017,-584,-325,132,-54,-322
2,351021,2218,204,-453,-1017,-584,-325,132,-54,-322
2,351026,2218,206,-454,-1020,-582,-323,132,-54,-322
2,351031,2218,206,-454,-1020,-582,-323,132,-54,-322
2,351037,2218,206,-454,-1020,-582,-323,132,-54,-322
2,351041,2218,206,-454,-1020,-582,-323,132,-54,-322
2,351047,2217,203,-454,-1020,-581,-322,132,-54,-322
2,351053,2217,203,-454,-1020,-581,-322,132,-54,-322
2,351058,2217,203,-454,-1020,-581,-322,132,-54,-322
2,351064,2217,207,-455,-1023,-582,-317,132,-54,-322
2,351069,2217,207,-455,-1023,-582,-317,132,-54,-322
2,351074,2217,207,-455,-1023,-582,-317,132,-54,-322
2,351080,2217,207,-455,-1023,-582,-317,132,-54,-322
2,351085,2223,205,-453,-1013,-590,-320,132,-54,-322
2,351091,2223,205,-453,-1013,-590,-320,132,-54,-322
2,351096,2223,205,-453,-1013,-590,-320,132,-54,-322
2,351101,2223,205,-453,-1013,-590,-320,132,-54,-322
2,351107,2219,204,-459,-1024,-578,-321,117,-51,-309
2,351113,2219,204,-459,-1024,-578,-321,117,-51,-309
2,351118,2219,204,-459,-1024,-578,-321,117,-51,-309
2,351124,2216,204,-459,-1026,-585,-323,117,-51,-309
2,351130,2216,204,-459,-1026,-585,-323,117,-51,-309
2,351135,2216,204,-459,-1026,-585,-323,117,-51,-309
2,351140,2216,204,-459,-1026,-585,-323,117,-51,-309
2,351147,2219,206,-458,-1020,-580,-325,117,-51,-309
2,351152,2219,206,-458,-1020,-580,-325,117,-51,-309
2,351158,2219,206,-458,-1020,-580,-325,117,-51,-309
2,351164,2220,206,-454,-1026,-579,-320,117,-51,-309
2,351169,2220,206,-454,-1026,-579,-320,117,-51,-309
2,351174,2220,206,-454,-1026,-579,-320,117,-51,-309
2,351179,2220,206,-454,-1026,-579,-320,117,-51,-309
2,351185,2220,208,-453,-1018,-578,-315,117,-51,-309
2,351191,2220,208,-453,-1018,-578,-315,117,-51,-309
2,351196,2220,208,-453,-1018,-578,-315,117,-51,-309
2,351202,2220,208,-453,-1018,-578,-315,117,-51,-309
2,351208,2221,207,-455,-1021,-588,-320,117,-51,-309
2,351213,2221,207,-455,-1021,-588,-320,117,-51,-309
2,351218,2221,207,-455,-1021,-588,-320,117,-51,-309
2,351224,2219,206,-455,-1021,-590,-328,117,-51,-309
2,351229,2219,206,-455,-1021,-590,-328,117,-51,-309
2,351235,2219,206,-455,-1021,-590,-328,117,-51,-309
2,351241,2219,206,-455,-1021,-590,-328,117,-51,-309
2,351246,2219,207,-454,-1021,-590,-322,112,-52,-318
2,351252,2219,207,-454,-1021,-590,-322,112,-52,-318
2,351257,2219,207,-454,-1021,-590,-322,112,-52,-318
2,351262,2219,207,-454,-1021,-590,-322,112,-52,-318
2,351267,2222,207,-455,-1022,-587,-323,112,-52,-318
2,351272,2222,207,-455,-1022,-587,-323,112,-52,-318
2,351278,2222,207,-455,-1022,-587,-323,112,-52,-318
2,351284,2223,206,-456,-1020,-584,-318,112,-52,-318
2,351289,2223,206,-456,-1020,-584,-318,112,-52,-318
2,351295,2223,206,-456,-1020,-584,-318,112,-52,-318
2,351300,2223,206,-456,-1020,-584,-318,112,-52,-318
2,351306,2220,208,-458,-1023,-582,-328,112,-52,-318
2,351311,2220,208,-458,-1023,-582,-328,112,-52,-318
2,351316,2220,208,-458,-1023,-582,-328,112,-52,-318
2,351322,2220,208,-458,-1023,-582,-328,112,-52,-318
2,351328,2220,202,-450,-1030,-584,-324,112,-52,-318
2,351333,2220,202,-450,-1030,-584,-324,112,-52,-318
2,351339,2220,202,-450,-1030,-584,-324,112,-52,-318
2,351344,2219,205,-457,-1022,-578,-327,112,-52,-318
2,351350,2219,205,-457,-1022,-578,-327,112,-52,-318
2,351355,2219,205,-457,-1022,-578,-327,112,-52,-318
2,351362,2219,205,-457,-1022,-578,-327,112,-52,-318
2,351367,2218,204,-459,-1022,-574,-322,118,-54,-316
2,351373,2218,204,-459,-1022,-574,-322,118,-54,-316
2,351378,2218,204,-459,-1022,-574,-322,118,-54,-316
2,351384,2222,208,-455,-1020,-579,-322,118,-54,-316
2,351389,2222,208,-455,-1020,-579,-322,118,-54,-316
2,351394,2222,208,-455,-1020,-579,-322,118,-54,-316
2,351400,2222,208,-455,-1020,-579,-322,118,-54,-316
2,351406,2223,206,-460,-1020,-583,-326,118,-54,-316
2,351412,2223,206,-460,-1020,-583,-326,118,-54,-316
2,351417,2223,206,-460,-1020,-583,-326,118,-54,-316
2,351422,2223,206,-460,-1020,-583,-326,118,-54,-316
2,351428,2220,206,-454,-1016,-583,-327,118,-54,-316
2,351433,2220,206,-454,-1016,-583,-327,118,-54,-316
2,351438,2220,206,-454,-1016,-583,-327,118,-54,-316
2,351443,2221,205,-457,-1016,-583,-326,118,-54,-316
2,351449,2221,205,-457,-1016,-583,-326,118,-54,-316
2,351455,2221,205,-457,-1016,-583,-326,118,-54,-316
2,351460,2221,205,-457,-1016,-583,-326,118,-54,-316
2,351466,2218,205,-461,-1014,-586,-327,118,-54,-316
2,351470,2218,205,-461,-1014,-586,-327,118,-54,-316
2,351475,2218,205,-461,-1014,-586,-327,118,-54,-316
2,351480,2218,205,-461,-1014,-586,-327,118,-54,-316
2,351485,2218,207,-452,-1019,-581,-326,118,-54,-316
2,351491,2218,207,-452,-1019,-581,-326,118,-54,-316
2,351496,2218,207,-452,-1019,-581,-326,118,-54,-316
2,351501,2218,207,-452,-1019,-581,-326,118,-54,-316
2,351506,2215,206,-454,-1019,-575,-318,116,-52,-320
2,351512,2215,206,-454,-1019,-575,-318,116,-52,-320
2,351517,2215,206,-454,-1019,-575,-318,116,-52,-320
2,351523,2215,206,-454,-1019,-575,-318,116,-52,-320
2,351528,2219,205,-457,-1015,-577,-318,116,-52,-320
2,351535,2219,205,-457,-1015,-577,-318,116,-52,-320
2,351540,2219,205,-457,-1015,-577,-318,116,-52,-320
2,351546,2220,205,-458,-1017,-584,-319,116,-52,-320
2,351550,2220,205,-458,-1017,-584,-319,116,-52,-320
2,351556,2220,205,-458,-1017,-584,-319,116,-52,-320
2,351561,2220,205,-458,-1017,-584,-319,116,-52,-320
2,351567,2215,204,-462,-1015,-590,-321,116,-52,-320
2,351572,2215,204,-462,-1015,-590,-321,116,-52,-320
2,351579,2215,204,-462,-1015,-590,-321,116,-52,-320
2,351584,2219,204,-463,-1024,-580,-330,116,-52,-320
2,351589,2219,204,-463,-1024,-580,-330,116,-52,-320
2,351594,2219,204,-463,-1024,-580,-330,116,-52,-320
2,351600,2219,204,-463,-1024,-580,-330,116,-52,-320
2,351606,2220,205,-458,-1017,-584,-323,116,-52,-320
2,351611,2220,205,-458,-1017,-584,-323,116,-52,-320
2,351618,2220,205,-458,-1017,-584,-323,116,-52,-320
2,351623,2220,205,-458,-1017,-584,-323,116,-52,-320
2,351629,2216,206,-451,-1024,-584,-324,116,-46,-322
2,351634,2216,206,-451,-1024,-584,-324,116,-46,-322
2,351640,2216,206,-451,-1024,-584,-324,116,-46,-322
2,351645,2218,207,-454,-1021,-586,-328,116,-46,-322
2,351651,2218,207,-454,-1021,-586,-328,116,-46,-322
2,351656,2218,207,-454,-1021,-586,-328,116,-46,-322
2,351664,2218,207,-453,-1022,-582,-325,116,-46,-322
2,351670,2218,207,-453,-1022,-582,-325,116,-46,-322
2,351675,2218,207,-453,-1022,-582,-325,116,-46,-322
2,351681,2218,207,-453,-1022,-582,-325,116,-46,-322
2,351687,2219,205,-450,-1019,-587,-321,116,-46,-322
2,351692,2219,205,-450,-1019,-587,-321,116,-46,-322
2,351698,2219,205,-450,-1019,-587,-321,116,-46,-322
2,351704,2219,207,-459,-1024,-582,-322,116,-46,-322
2,351710,2219,207,-459,-1024,-582,-322,116,-46,-322
2,351716,2219,207,-459,-1024,-582,-322,116,-46,-322
2,351722,2219,207,-459,-1024,-582,-322,116,-46,-322
2,351728,2220,208,-457,-1014,-587,-325,116,-46,-322
2,351733,2220,208,-457,-1014,-587,-325,116,-46,-322
2,351739,2220,208,-457,-1014,-587,-325,116,-46,-322
2,351745,2219,205,-456,-1019,-583,-325,111,-53,-319
2,351751,2219,205,-456,-1019,-583,-325,111,-53,-319
2,351756,2219,205,-456,-1019,-583,-325,111,-53,-319
2,351762,2219,205,-456,-1019,-583,-325,111,-53,-319
2,351767,2218,205,-457,-1020,-584,-325,111,-53,-319
2,351773,2218,205,-457,-1020,-584,-325,111,-53,-319
2,351778,2218,205,-457,-1020,-584,-325,111,-53,-319
2,351783,2223,208,-451,-1024,-580,-324,111,-53,-319
2,351790,2223,208,-451,-1024,-580,-324,111,-53,-319
2,351795,2223,208,-451,-1024,-580,-324,111,-53,-319
2,351801,2223,208,-451,-1024,-580,-324,111,-53,-319
2,351806,2217,206,-456,-1010,-585,-325,111,-53,-319
2,351811,2217,206,-456,-1010,-585,-325,111,-53,-319
2,351817,2217,206,-456,-1010,-585,-325,111,-53,-319
2,351822,2217,206,-456,-1010,-585,-325,111,-53,-319
2,351828,2221,204,-457,-1015,-588,-333,111,-53,-319
2,351834,2221,204,-457,-1015,-588,-333,111,-53,-319
2,351839,2221,204,-457,-1015,-588,-333,111,-53,-319
2,351845,2220,206,-454,-1022,-587,-335,111,-53,-319
2,351851,2220,206,-454,-1022,-587,-335,111,-53,-319
2,351856,2220,206,-454,-1022,-587,-335,111,-53,-319
2,351862,2220,206,-454,-1022,-587,-335,111,-53,-319
2,351867,2221,202,-457,-1021,-591,-322,111,-53,-319
2,351873,2221,202,-457,-1021,-591,-322,111,-53,-319
2,351879,2221,202,-457,-1021,-591,-322,111,-53,-319
2,351885,2219,204,-449,-1017,-585,-322,111,-51,-319
2,351891,2219,204,-449,-1017,-585,-322,111,-51,-319
2,351897,2219,204,-449,-1017,-585,-322,111,-51,-319
2,351902,2219,204,-449,-1017,-585,-322,111,-51,-319
2,351908,2218,206,-452,-1021,-581,-325,111,-51,-319
2,351913,2218,206,-452,-1021,-581,-325,111,-51,-319
2,351919,2218,206,-452,-1021,-581,-325,111,-51,-319
2,351925,2218,205,-456,-1020,-582,-326,111,-51,-319
2,351930,2218,205,-456,-1020,-582,-326,111,-51,-319
2,351936,2218,205,-456,-1020,-582,-326,111,-51,-319
2,351941,2218,205,-456,-1020,-582,-326,111,-51,-319
2,351947,2219,203,-454,-1026,-583,-324,111,-51,-319
2,351952,2219,203,-454,-1026,-583,-324,111,-51,-319
2,351960,2219,203,-454,-1026,-583,-324,111,-51,-319
2,351966,2219,205,-462,-1024,-581,-324,111,-51,-319
2,351972,2219,205,-462,-1024,-581,-324,111,-51,-319
2,351978,2219,205,-462,-1024,-581,-324,111,-51,-319
2,351983,2219,205,-462,-1024,-581,-324,111,-51,-319
2,351989,2220,205,-454,-1023,-579,-324,111,-51,-319
2,351994,2220,205,-454,-1023,-579,-324,111,-51,-319
2,352001,2220,205,-454,-1023,-579,-324,111,-51,-319
2,352006,2219,207,-454,-1016,-586,-322,113,-51,-321
2,352012,2219,207,-454,-1016,-586,-322,113,-51,-321
2,352019,2219,207,-454,-1016,-586,-322,113,-51,-321
2,352024,2216,204,-455,-1019,-583,-327,113,-51,-321
2,352030,2216,204,-455,-1019,-583,-327,113,-51,-321
2,352035,2216,204,-455,-1019,-583,-327,113,-51,-321
2,352040,2216,204,-455,-1019,-583,-327,113,-51,-321
2,352046,2222,205,-454,-1022,-594,-323,113,-51,-321
2,352052,2222,205,-454,-1022,-594,-323,113,-51,-321
2,352057,2222,205,-454,-1022,-594,-323,113,-51,-321
2,352063,2222,205,-454,-1022,-594,-323,113,-51,-321
2,352068,2217,208,-455,-1027,-591,-319,113,-51,-321
2,352073,2217,208,-455,-1027,-591,-319,113,-51,-321
2,352079,2217,208,-455,-1027,-591,-319,113,-51,-321
2,352086,2218,205,-457,-1018,-582,-321,113,-51,-321
2,352091,2218,205,-457,-1018,-582,-321,113,-51,-321
2,352097,2218,205,-457,-1018,-582,-321,113,-51,-321
2,352102,2218,205,-457,-1018,-582,-321,113,-51,-321
2,352108,2219,205,-454,-1013,-579,-324,113,-51,-321
2,352113,2219,205,-454,-1013,-579,-324,113,-51,-321
2,352119,2219,205,-454,-1013,-579,-324,113,-51,-321
2,352124,2220,206,-457,-1017,-589,-328,113,-51,-321
2,352131,2220,206,-457,-1017,-589,-328,113,-51,-321
2,352137,2220,206,-457,-1017,-589,-328,113,-51,-321
2,352142,2220,206,-457,-1017,-589,-328,113,-51,-321
2,352147,2221,203,-456,-1015,-582,-316,114,-54,-326
2,352152,2221,203,-456,-1015,-582,-316,114,-54,-326
2,352157,2221,203,-456,-1015,-582,-316,114,-54,-326
2,352163,2221,203,-456,-1015,-582,-316,114,-54,-326
2,352168,2222,205,-449,-1021,-580,-320,114,-54,-326
2,352175,2222,205,-449,-1021,-580,-320,114,-54,-326
2,352180,2222,205,-449,-1021,-580,-320,114,-54,-326
2,352185,2221,205,-457,-1017,-585,-323,114,-54,-326
2,352191,2221,205,-457,-1017,-585,-323,114,-54,-326
2,352196,2221,205,-457,-1017,-585,-323,114,-54,-326
2,352201,2221,205,-457,-1017,-585,-323,114,-54,-326
2,352206,2223,206,-455,-1014,-578,-322,114,-54,-326
2,352212,2223,206,-455,-1014,-578,-322,114,-54,-326
2,352218,2223,206,-455,-1014,-578,-322,114,-54,-326
2,352223,2223,206,-455,-1014,-578,-322,114,-54,-326
2,352228,2218,209,-458,-1025,-582,-314,114,-54,-326
2,352233,2218,209,-458,-1025,-582,-314,114,-54,-326
2,352239,2218,209,-458,-1025,-582,-314,114,-54,-326
2,352244,2219,207,-456,-1024,-584,-324,114,-54,-326
2,352250,2219,207,-456,-1024,-584,-324,114,-54,-326
2,352257,2219,207,-456,-1024,-584,-324,114,-54,-326
2,352262,2219,207,-456,-1024,-584,-324,114,-54,-326
2,352267,2219,204,-454,-1025,-579,-325,119,-49,-317
2,352272,2219,204,-454,-1025,-579,-325,119,-49,-317
2,352278,2219,204,-454,-1025,-579,-325,119,-49,-317
2,352283,2219,204,-454,-1025,-579,-325,119,-49,-317
2,352288,2218,206,-460,-1020,-583,-326,119,-49,-317
2,352294,2218,206,-460,-1020,-583,-326,119,-49,-317
2,352300,2218,206,-460,-1020,-583,-326,119,-49,-317
2,352306,2220,204,-460,-1026,-580,-329,119,-49,-317
2,352311,2220,204,-460,-1026,-580,-329,119,-49,-317
2,352317,2220,204,-460,-1026,-580,-329,119,-49,-317
2,352322,2220,204,-460,-1026,-580,-329,119,-49,-317
2,352327,2219,206,-453,-1019,-588,-326,119,-49,-317
2,352332,2219,206,-453,-1019,-588,-326,119,-49,-317
2,352338,2219,206,-453,-1019,-588,-326,119,-49,-317
2,352344,2219,206,-453,-1019,-588,-326,119,-49,-317
2,352350,2218,208,-449,-1018,-581,-332,119,-49,-317
2,352355,2218,208,-449,-1018,-581,-332,119,-49,-317
2,352361,2218,208,-449,-1018,-581,-332,119,-49,-317
2,352366,2220,206,-457,-1020,-582,-318,119,-49,-317
2,352371,2220,206,-457,-1020,-582,-318,119,-49,-317
2,352377,2220,206,-457,-1020,-582,-318,119,-49,-317
2,352384,2220,206,-457,-1020,-582,-318,119,-49,-317
2,352389,2219,206,-453,-1031,-583,-315,112,-56,-316
2,352395,2219,206,-453,-1031,-583,-315,112,-56,-316
2,352401,2219,206,-453,-1031,-583,-315,112,-56,-316
2,352406,2218,206,-457,-1018,-580,-320,112,-56,-316
2,352411,2218,206,-457,-1018,-580,-320,112,-56,-316
2,352417,2218,206,-457,-1018,-580,-320,112,-56,-316
2,352422,2218,206,-457,-1018,-580,-320,112,-56,-316
2,352428,2221,207,-454,-1015,-591,-320,112,-56,-316
2,352433,2221,207,-454,-1015,-591,-320,112,-56,-316
2,352438,2221,207,-454,-1015,-591,-320,112,-56,-316
2,352443,2221,207,-454,-1015,-591,-320,112,-56,-316
2,352448,2221,206,-451,-1024,-586,-319,112,-56,-316
2,352454,2221,206,-451,-1024,-586,-319,112,-56,-316
2,352460,2221,206,-451,-1024,-586,-319,112,-56,-316
2,352465,2221,206,-457,-1024,-581,-325,112,-56,-316
2,352471,2221,206,-457,-1024,-581,-325,112,-56,-316
2,352477,2221,206,-457,-1024,-581,-325,112,-56,-316
2,352482,2221,206,-457,-1024,-581,-325,112,-56,-316
2,352487,2222,206,-460,-1026,-580,-323,112,-56,-316
2,352493,2222,206,-460,-1026,-580,-323,112,-56,-316
2,352498,2222,206,-460,-1026,-580,-323,112,-56,-316
2,352503,2222,206,-460,-1026,-580,-323,112,-56,-316
2,352509,2219,206,-458,-1020,-582,-326,112,-56,-316
2,352515,2219,206,-458,-1020,-582,-326,112,-56,-316
2,352521,2219,206,-458,-1020,-582,-326,112,-56,-316
2,352526,2217,206,-450,-1023,-573,-324,113,-49,-319
2,352531,2217,206,-450,-1023,-573,-324,113,-49,-319
2,352537,2217,206,-450,-1023,-573,-324,113,-49,-319
2,352542,2217,206,-450,-1023,-573,-324,113,-49,-319
2,352548,2218,207,-451,-1020,-579,-324,113,-49,-319
2,352553,2218,207,-451,-1020,-579,-324,113,-49,-319
2,352560,2218,207,-451,-1020,-579,-324,113,-49,-319
2,352565,2218,207,-451,-1020,-579,-324,113,-49,-319
2,352570,2221,208,-460,-1026,-580,-324,113,-49,-319
2,352575,2221,208,-460,-1026,-580,-324,113,-49,-319
2,352580,2221,208,-460,-1026,-580,-324,113,-49,-319
2,352585,2221,206,-460,-1025,-587,-328,113,-49,-319
2,352591,2221,206,-460,-1025,-587,-328,113,-49,-319
2,352596,2221,206,-460,-1025,-587,-328,113,-49,-319
2,352602,2221,206,-460,-1025,-587,-328,113,-49,-319
2,352607,2220,206,-453,-1019,-585,-328,113,-49,-319
2,352613,2220,206,-453,-1019,-585,-328,113,-49,-319
2,352618,2220,206,-453,-1019,-585,-328,113,-49,-319
2,352624,2220,206,-453,-1019,-585,-328,113,-49,-319
2,352629,2221,204,-456,-1026,-584,-322,113,-49,-319
2,352634,2221,204,-456,-1026,-584,-322,113,-49,-319
2,352641,2221,204,-456,-1026,-584,-322,113,-49,-319
2,352646,2217,204,-455,-1020,-580,-319,117,-53,-323
2,352651,2217,204,-455,-1020,-580,-319,117,-53,-323
2,352657,2217,204,-455,-1020,-580,-319,117,-53,-323
2,352663,2217,204,-455,-1020,-580,-319,117,-53,-323
2,352668,2220,204,-454,-1016,-585,-320,117,-53,-323
2,352673,2220,204,-454,-1016,-585,-320,117,-53,-323
2,352678,2220,204,-454,-1016,-585,-320,117,-53,-323
2,352685,2220,204,-454,-1016,-585,-320,117,-53,-323
2,352690,2217,205,-454,-1010,-580,-318,117,-53,-323
2,352696,2217,205,-454,-1010,-580,-318,117,-53,-323
2,352701,2217,205,-454,-1010,-580,-318,117,-53,-323
2,352706,2217,205,-452,-1022,-585,-325,117,-53,-323
2,352712,2217,205,-452,-1022,-585,-325,117,-53,-323
2,352717,2217,205,-452,-1022,-585,-325,117,-53,-323
2,352723,2217,205,-452,-1022,-585,-325,117,-53,-323
2,352730,2217,205,-453,-1024,-583,-324,117,-53,-323
2,352736,2217,205,-453,-1024,-583,-324,117,-53,-323
2,352742,2217,205,-453,-1024,-583,-324,117,-53,-323
2,352747,2221,205,-452,-1013,-582,-322,117,-53,-323
2,352752,2221,205,-452,-1013,-582,-322,117,-53,-323
2,352758,2221,205,-452,-1013,-582,-322,117,-53,-323
2,352763,2221,205,-452,-1013,-582,-322,117,-53,-323
2,352770,2219,208,-454,-1014,-585,-330,117,-53,-323
2,352776,2219,208,-454,-1014,-585,-330,117,-53,-323
2,352782,2219,208,-454,-1014,-585,-330,117,-53,-323
2,352787,2221,209,-450,-1007,-586,-323,119,-51,-323
2,352793,2221,209,-450,-1007,-586,-323,119,-51,-323
2,352799,2221,209,-450,-1007,-586,-323,119,-51,-323
2,352805,2218,205,-452,-1019,-590,-319,119,-51,-323
2,352811,2218,205,-452,-1019,-590,-319,119,-51,-323
2,352816,2218,205,-452,-1019,-590,-319,119,-51,-323
2,352822,2218,205,-452,-1019,-590,-319,119,-51,-323
2,352827,2217,207,-454,-1016,-585,-325,119,-51,-323
2,352832,2217,207,-454,-1016,-585,-325,119,-51,-323
2,352838,2217,207,-454,-1016,-585,-325,119,-51,-323
2,352843,2217,207,-454,-1016,-585,-325,119,-51,-323
2,352848,2218,205,-456,-1020,-591,-324,119,-51,-323
2,352854,2218,205,-456,-1020,-591,-324,119,-51,-323
2,352859,2218,205,-456,-1020,-591,-324,119,-51,-323
2,352865,2218,205,-456,-1020,-591,-324,119,-51,-323
2,352871,2218,205,-462,-1025,-589,-323,119,-51,-323
2,352876,2218,205,-462,-1025,-589,-323,119,-51,-323
2,352881,2218,205,-462,-1025,-589,-323,119,-51,-323
2,352887,2219,207,-452,-1023,-586,-319,119,-51,-323
2,352893,2219,207,-452,-1023,-586,-319,119,-51,-323
2,352899,2219,207,-452,-1023,-586,-319,119,-51,-323
2,352906,2220,208,-454,-1024,-581,-323,118,-50,-323
2,352911,2220,208,-454,-1024,-581,-323,118,-50,-324
2,352917,2220,208,-454,-1024,-581,-323,118,-50,-324
2,352923,2220,208,-454,-1024,-581,-323,118,-50,-324
2,352928,2218,204,-451,-1024,-582,-316,118,-50,-324
2,352934,2218,204,-451,-1024,-582,-316,118,-50,-324
2,352941,2218,204,-451,-1024,-582,-316,118,-50,-324
2,352947,2220,204,-459,-1015,-579,-325,118,-50,-324
2,352953,2220,204,-459,-1015,-579,-325,118,-50,-324
2,352958,2220,204,-459,-1015,-579,-325,118,-50,-324
2,352964,2220,204,-459,-1015,-579,-325,118,-50,-324
2,352969,2222,205,-457,-1025,-582,-320,118,-50,-324
2,352975,2222,205,-457,-1025,-582,-320,118,-50,-324
2,352982,2222,205,-457,-1025,-582,-320,118,-50,-324
2,352989,2217,202,-455,-1024,-582,-325,118,-50,-324
2,352996,2217,202,-455,-1024,-582,-325,118,-50,-324
2,353003,2217,202,-455,-1024,-582,-325,118,-50,-324
2,353010,2219,207,-456,-1021,-583,-333,118,-50,-324
2,353017,2219,207,-456,-1021,-583,-333,118,-50,-324
2,353024,2219,207,-456,-1021,-583,-333,118,-50,-324
2,353029,2218,205,-453,-1018,-581,-325,109,-51,-323
2,353035,2218,205,-453,-1018,-581,-325,109,-51,-323
2,353041,2218,205,-453,-1018,-581,-325,109,-51,-323
2,353047,2221,207,-455,-1025,-581,-327,109,-51,-323
2,353053,2221,207,-455,-1025,-581,-327,109,-51,-323
2,353059,2221,207,-455,-1025,-581,-327,109,-51,-323
2,353065,2221,207,-455,-1025,-581,-327,109,-51,-323
2,353072,2218,206,-453,-1023,-576,-324,109,-51,-323
2,353077,2218,206,-453,-1023,-576,-324,109,-51,-323
2,353083,2218,206,-453,-1023,-576,-324,109,-51,-323
2,353089,2216,206,-457,-1015,-580,-323,109,-51,-323
2,353096,2216,206,-457,-1015,-580,-323,109,-51,-323
2,353102,2216,206,-457,-1015,-580,-323,109,-51,-323
2,353108,2220,204,-457,-1018,-587,-314,109,-51,-323
2,353114,2220,204,-457,-1018,-587,-314,109,-51,-323
2,353119,2220,204,-457,-1018,-587,-314,109,-51,-323
2,353125,2220,204,-457,-1018,-587,-314,109,-51,-323
2,353131,2220,206,-456,-1023,-586,-319,109,-51,-323
2,353136,2220,206,-456,-1023,-586,-319,109,-51,-323
2,353141,2220,206,-456,-1023,-586,-319,109,-51,-323
2,353147,2220,206,-456,-1029,-590,-320,109,-51,-323
2,353153,2220,206,-456,-1029,-590,-320,109,-51,-323
2,353159,2220,206,-456,-1029,-590,-320,109,-51,-323
2,353164,2220,206,-456,-1029,-590,-320,109,-51,-323
2,353170,2220,205,-453,-1017,-584,-324,108,-52,-326
2,353175,2220,205,-453,-1017,-584,-324,108,-52,-326
2,353182,2220,205,-453,-1017,-584,-324,108,-52,-326
2,353188,2221,204,-453,-1023,-582,-327,108,-52,-326
2,353193,2221,204,-453,-1023,-582,-327,108,-52,-326
2,353200,2221,204,-453,-1023,-582,-327,108,-52,-326
2,353205,2221,204,-453,-1023,-582,-327,108,-52,-326
2,353211,2222,204,-451,-1027,-581,-320,108,-52,-326
2,353216,2222,204,-451,-1027,-581,-320,108,-52,-326
2,353221,2222,204,-451,-1027,-581,-320,108,-52,-326
2,353227,2217,205,-455,-1017,-581,-322,108,-52,-326
2,353232,2217,205,-455,-1017,-581,-322,108,-52,-326
2,353239,2217,205,-455,-1017,-581,-322,108,-52,-326
2,353244,2217,205,-455,-1017,-581,-322,108,-52,-326
2,353249,2220,205,-454,-1017,-585,-314,108,-52,-326
2,353255,2220,205,-454,-1017,-585,-314,108,-52,-326
2,353260,2220,205,-454,-1017,-585,-314,108,-52,-326
2,353265,2220,206,-455,-1018,-590,-320,108,-52,-326
2,353271,2220,206,-455,-1018,-590,-320,108,-52,-326
2,353276,2220,206,-455,-1018,-590,-320,108,-52,-326
2,353282,2220,206,-455,-1018,-590,-320,108,-52,-326
2,353287,2222,208,-453,-1020,-584,-327,112,-48,-316
2,353293,2222,208,-453,-1020,-584,-327,112,-48,-316
2,353298,2222,208,-453,-1020,-584,-327,112,-48,-316
2,353303,2222,208,-453,-1020,-584,-327,112,-48,-316
2,353309,2218,208,-455,-1015,-583,-327,112,-48,-316
2,353314,2218,208,-455,-1015,-583,-327,112,-48,-316
2,353319,2218,208,-455,-1015,-583,-327,112,-48,-316
2,353325,2218,208,-455,-1015,-583,-327,112,-48,-316
2,353331,2219,207,-453,-1017,-581,-322,112,-48,-316
2,353336,2219,207,-453,-1017,-581,-322,112,-48,-316
2,353341,2219,207,-453,-1017,-581,-322,112,-48,-316
2,353347,2223,206,-454,-1015,-582,-324,112,-48,-316
2,353351,2223,206,-454,-1015,-582,-324,112,-48,-316
2,353356,2223,206,-454,-1015,-582,-324,112,-48,-316
2,353362,2223,206,-454,-1015,-582,-324,112,-48,-316
2,353369,2220,206,-458,-1013,-579,-329,112,-48,-316
2,353375,2220,206,-458,-1013,-579,-329,112,-48,-316
2,353380,2220,206,-458,-1013,-579,-329,112,-48,-316
2,353386,2221,204,-449,-1024,-586,-329,112,-48,-316
2,353393,2221,204,-449,-1024,-586,-329,112,-48,-316
2,353398,2221,204,-449,-1024,-586,-329,112,-48,-316
2,353404,2221,204,-449,-1024,-586,-329,112,-48,-316
2,353411,2219,204,-456,-1020,-583,-325,112,-48,-316
2,353416,2219,204,-456,-1020,-583,-325,112,-48,-316
2,353422,2219,204,-456,-1020,-583,-325,112,-48,-316
2,353427,2219,203,-453,-1026,-582,-323,113,-51,-323
2,353432,2219,203,-453,-1026,-582,-323,113,-51,-323
2,353439,2219,203,-453,-1026,-582,-323,113,-51,-323
2,353446,2221,210,-451,-1018,-582,-326,113,-51,-323
2,353453,2221,210,-451,-1018,-582,-326,113,-51,-323
2,353460,2221,210,-451,-1018,-582,-326,113,-51,-323
2,353467,2219,209,-456,-1017,-576,-317,113,-51,-323
2,353473,2219,209,-456,-1017,-576,-317,113,-51,-323
2,353478,2219,209,-456,-1017,-576,-317,113,-51,-323
2,353483,2219,209,-456,-1017,-576,-317,113,-51,-323
2,353491,2220,207,-452,-1020,-579,-319,113,-51,-323
2,353497,2220,207,-452,-1020,-579,-319,113,-51,-323
2,353502,2220,207,-452,-1020,-579,-319,113,-51,-323
2,353507,2220,205,-458,-1018,-586,-318,113,-51,-323
2,353513,2220,205,-458,-1018,-586,-318,113,-51,-323
2,353518,2220,205,-458,-1018,-586,-318,113,-51,-323
2,353523,2220,205,-458,-1018,-586,-318,113,-51,-323
2,353529,2222,207,-455,-1025,-584,-325,113,-51,-323
2,353534,2222,207,-455,-1025,-584,-325,113,-51,-323
2,353540,2222,207,-455,-1025,-584,-325,113,-51,-323
2,353546,2218,208,-451,-1016,-582,-324,113,-51,-323
2,353552,2218,208,-451,-1016,-582,-324,113,-57,-323
2,353558,2218,208,-451,-1016,-582,-324,113,-57,-323
2,353563,2218,208,-451,-1016,-582,-324,113,-57,-323
2,353568,2219,206,-453,-1021,-585,-325,113,-57,-323
2,353574,2219,206,-453,-1021,-585,-325,113,-57,-323
2,353581,2219,206,-453,-1021,-585,-325,113,-57,-323
2,353586,2219,206,-453,-1021,-585,-325,113,-57,-323
2,353591,2218,207,-450,-1012,-581,-327,113,-57,-323
2,353597,2218,207,-450,-1012,-581,-327,113,-57,-323
2,353603,2218,207,-450,-1012,-581,-327,113,-57,-323
2,353609,2219,205,-454,-1016,-582,-335,113,-57,-323
2,353614,2219,205,-454,-1016,-582,-335,113,-57,-323
2,353620,2219,205,-454,-1016,-582,-335,113,-57,-323
2,353627,2215,203,-459,-1018,-590,-324,113,-57,-323
2,353633,2215,203,-459,-1018,-590,-324,113,-57,-323
2,353639,2215,203,-459,-1018,-590,-324,113,-57,-323
2,353645,2215,203,-459,-1018,-590,-324,113,-57,-323
2,353651,2217,206,-456,-1021,-583,-319,113,-57,-323
2,353657,2217,206,-456,-1021,-583,-319,113,-57,-323
2,353662,2217,206,-456,-1021,-583,-319,113,-57,-323
2,353668,2219,206,-451,-1020,-580,-322,120,-52,-316
2,353674,2219,206,-451,-1020,-580,-322,120,-52,-316
2,353679,2219,206,-451,-1020,-580,-322,120,-52,-316
2,353685,2219,206,-451,-1020,-580,-322,120,-52,-316
2,353690,2216,206,-451,-1021,-585,-324,120,-52,-316
2,353696,2216,206,-451,-1021,-585,-324,120,-52,-316
2,353702,2216,206,-451,-1021,-585,-324,120,-52,-316
2,353709,2217,202,-453,-1020,-589,-316,120,-52,-316
2,353716,2217,202,-453,-1020,-589,-316,120,-52,-316
2,353722,2217,202,-453,-1020,-589,-316,120,-52,-316
2,353728,2218,209,-458,-1018,-585,-321,120,-52,-316
2,353734,2218,209,-458,-1018,-585,-321,120,-52,-316
2,353740,2218,209,-458,-1018,-585,-321,120,-52,-316
2,353746,2218,209,-458,-1018,-585,-321,120,-52,-316
2,353753,2219,206,-456,-1014,-574,-326,120,-52,-316
2,353759,2219,206,-456,-1014,-574,-326,120,-52,-316
2,353765,2219,206,-456,-1014,-574,-326,120,-52,-316
2,353771,2218,206,-457,-1022,-587,-321,120,-52,-316
2,353776,2218,206,-457,-1022,-587,-321,120,-52,-316
2,353781,2218,206,-457,-1022,-587,-321,120,-52,-316
2,353787,2218,206,-457,-1022,-587,-321,120,-52,-316
2,353793,2218,206,-457,-1022,-587,-321,120,-52,-316
2,353799,2218,206,-457,-1022,-587,-321,120,-52,-316
2,353806,2218,206,-457,-1022,-587,-321,120,-52,-316
2,353811,2220,205,-458,-1022,-584,-328,119,-59,-321
2,353817,2220,205,-458,-1022,-584,-328,119,-59,-321
2,353823,2220,205,-458,-1022,-584,-328,119,-59,-321
2,353829,2220,207,-455,-1019,-577,-326,119,-59,-321
2,353836,2220,207,-455,-1019,-577,-326,119,-59,-321
2,353842,2220,207,-455,-1019,-577,-326,119,-59,-321
2,353848,2219,205,-451,-1023,-582,-321,119,-59,-321
2,353854,2219,205,-451,-1023,-582,-321,119,-59,-321
2,353860,2219,205,-451,-1023,-582,-321,119,-59,-321
2,353866,2219,205,-451,-1023,-582,-321,119,-59,-321
2,353872,2220,203,-456,-1019,-578,-326,119,-59,-321
2,353878,2220,203,-456,-1019,-578,-326,119,-59,-321
2,353885,2220,203,-456,-1019,-578,-326,119,-59,-321
2,353891,2216,206,-461,-1024,-584,-329,119,-59,-321
2,353896,2216,206,-461,-1024,-584,-329,119,-59,-321
2,353902,2216,206,-461,-1024,-584,-329,119,-59,-321
2,353908,2218,205,-461,-1017,-584,-318,119,-59,-321
2,353913,2218,205,-461,-1017,-584,-318,119,-59,-321
2,353920,2218,205,-461,-1017,-584,-318,119,-59,-321
2,353925,2218,205,-461,-1017,-584,-318,119,-59,-321
2,353931,2217,207,-456,-1023,-585,-319,120,-50,-322
2,353936,2217,207,-456,-1023,-585,-319,120,-50,-322
2,353942,2217,207,-456,-1023,-585,-319,120,-50,-322
2,353947,2220,205,-459,-1016,-583,-310,120,-50,-322
2,353952,2220,205,-459,-1016,-583,-310,120,-50,-322
2,353958,2220,205,-459,-1016,-583,-310,120,-50,-322
2,353964,2220,205,-459,-1016,-583,-310,120,-50,-322
2,353970,2217,202,-455,-1020,-580,-322,120,-50,-322
2,353975,2217,202,-455,-1020,-580,-322,120,-50,-322
2,353981,2217,202,-455,-1020,-580,-322,120,-50,-322
2,353986,2217,202,-455,-1020,-580,-322,120,-50,-322
2,353991,2219,204,-453,-1013,-582,-322,120,-50,-322
2,353996,2219,204,-453,-1013,-582,-322,120,-50,-322
2,354002,2219,204,-453,-1013,-582,-322,120,-50,-322
2,354008,2218,204,-455,-1006,-583,-323,120,-50,-322
2,354014,2218,204,-455,-1006,-583,-323,120,-50,-322
2,354019,2218,204,-455,-1006,-583,-323,120,-50,-322
2,354025,2218,204,-455,-1006,-583,-323,120,-50,-322
2,354030,2217,205,-446,-1018,-578,-325,120,-50,-322
2,354036,2217,205,-446,-1018,-578,-325,120,-50,-322
2,354041,2217,205,-446,-1018,-578,-325,120,-50,-322
2,354048,2221,205,-452,-1020,-581,-324,120,-50,-322
2,354054,2221,205,-452,-1020,-581,-324,120,-50,-322
2,354059,2221,205,-452,-1020,-581,-324,120,-50,-322
2,354065,2221,205,-452,-1020,-581,-324,120,-50,-322
2,354071,2217,206,-459,-1016,-579,-325,116,-46,-322
2,354077,2217,206,-459,-1016,-579,-325,116,-46,-322
2,354083,2217,206,-459,-1016,-579,-325,116,-46,-322
2,354088,2218,207,-454,-1019,-580,-324,116,-46,-322
2,354094,2218,207,-454,-1019,-580,-324,116,-46,-322
2,354099,2218,207,-454,-1019,-580,-324,116,-46,-322
2,354104,2218,207,-454,-1019,-580,-324,116,-46,-322
2,354109,2223,209,-450,-1018,-582,-321,116,-46,-322
2,354115,2223,209,-450,-1018,-582,-321,116,-46,-322
2,354119,2223,209,-450,-1018,-582,-321,116,-46,-322
2,354125,2223,209,-450,-1018,-582,-321,116,-46,-322
2,354131,2219,209,-455,-1028,-581,-327,116,-46,-322
2,354138,2219,209,-455,-1028,-581,-327,116,-46,-322
2,354143,2219,209,-455,-1028,-581,-327,116,-46,-322
2,354149,2217,204,-455,-1021,-590,-327,116,-46,-322
2,354156,2217,204,-455,-1021,-590,-327,116,-46,-322
2,354161,2217,204,-455,-1021,-590,-327,116,-46,-322
2,354167,2218,202,-451,-1026,-581,-323,116,-46,-322
2,354173,2218,202,-451,-1026,-581,-323,116,-46,-322
2,354180,2218,202,-451,-1026,-581,-323,116,-46,-322
2,354186,2218,202,-451,-1026,-581,-323,116,-46,-322
2,354192,2218,207,-454,-1011,-583,-325,115,-47,-333
2,354198,2218,207,-454,-1011,-583,-325,115,-47,-333
2,354203,2218,207,-454,-1011,-583,-325,115,-47,-333
2,354209,2219,204,-456,-1027,-583,-320,115,-47,-333
2,354215,2219,204,-456,-1027,-583,-320,115,-47,-333
2,354221,2219,204,-456,-1027,-583,-320,115,-47,-333
2,354227,2219,204,-456,-1027,-583,-320,115,-47,-333
2,354232,2219,206,-463,-1017,-581,-324,115,-47,-333
2,354238,2219,206,-463,-1017,-581,-324,115,-47,-333
2,354246,2219,206,-463,-1017,-581,-324,115,-47,-333
2,354251,2219,204,-454,-1020,-590,-328,115,-47,-333
2,354257,2219,204,-454,-1020,-590,-328,115,-47,-333
2,354263,2219,204,-454,-1020,-590,-328,115,-47,-333
2,354269,2217,205,-455,-1019,-583,-323,115,-47,-333
2,354274,2217,205,-455,-1019,-583,-323,115,-47,-333
2,354280,2217,205,-455,-1019,-583,-323,115,-47,-333
2,354285,2217,205,-455,-1019,-583,-323,115,-47,-333
2,354291,2220,210,-457,-1013,-581,-325,115,-47,-333
2,354296,2220,210,-457,-1013,-581,-325,115,-47,-333
2,354302,2220,210,-457,-1013,-581,-325,115,-47,-333
2,354308,2217,206,-453,-1015,-585,-328,116,-62,-320
2,354314,2217,206,-453,-1015,-585,-328,116,-62,-320
2,354320,2217,206,-453,-1015,-585,-328,116,-62,-320
2,354325,2217,206,-453,-1015,-585,-328,116,-62,-320
2,354330,2216,207,-454,-1029,-584,-328,116,-62,-320
2,354336,2216,207,-454,-1029,-584,-328,116,-62,-320
2,354341,2216,207,-454,-1029,-584,-328,116,-62,-320
2,354348,2219,203,-455,-1023,-585,-326,116,-62,-320
2,354353,2219,203,-455,-1023,-585,-326,116,-62,-320
2,354358,2219,203,-455,-1023,-585,-326,116,-62,-320
2,354364,2219,203,-455,-1023,-585,-326,116,-62,-320
2,354369,2220,205,-455,-1018,-582,-322,116,-62,-320
2,354374,2220,205,-455,-1018,-582,-322,116,-62,-320
2,354379,2220,205,-455,-1018,-582,-322,116,-62,-320
2,354385,2220,205,-455,-1018,-582,-322,116,-62,-320
2,354391,2218,202,-454,-1017,-581,-323,116,-62,-320
2,354397,2218,202,-454,-1017,-581,-323,116,-62,-320
2,354402,2218,202,-454,-1017,-581,-323,116,-62,-320
2,354407,2220,204,-453,-1009,-583,-327,116,-62,-320
2,354413,2220,204,-453,-1009,-583,-327,116,-62,-320
2,354418,2220,204,-453,-1009,-583,-327,116,-62,-320
2,354424,2220,204,-453,-1009,-583,-327,116,-62,-320
2,354429,2220,209,-458,-1007,-586,-323,116,-62,-320
2,354436,2220,209,-458,-1007,-586,-323,116,-62,-320
2,354442,2220,209,-458,-1007,-586,-323,116,-62,-320
2,354447,2218,208,-450,-1017,-590,-317,116,-62,-320
2,354453,2218,208,-450,-1017,-590,-317,117,-65,-327
2,354459,2218,208,-450,-1017,-590,-317,117,-65,-327
2,354464,2218,208,-450,-1017,-590,-317,117,-65,-327
2,354470,2224,204,-453,-1021,-589,-320,117,-65,-327
2,354477,2224,204,-453,-1021,-589,-320,117,-65,-327
2,354482,2224,204,-453,-1021,-589,-320,117,-65,-327
2,354488,2219,207,-450,-1014,-580,-322,117,-65,-327
2,354494,2219,207,-450,-1014,-580,-322,117,-65,-327
2,354500,2219,207,-450,-1014,-580,-322,117,-65,-327
2,354506,2219,207,-450,-1014,-580,-322,117,-65,-327
2,354512,2222,204,-457,-1018,-588,-327,117,-65,-327
2,354519,2222,204,-457,-1018,-588,-327,117,-65,-327
2,354524,2222,204,-457,-1018,-588,-327,117,-65,-327
2,354530,2219,208,-458,-1023,-586,-329,117,-65,-327
2,354536,2219,208,-458,-1023,-586,-329,117,-65,-327
2,354542,2219,208,-458,-1023,-586,-329,117,-65,-327
2,354547,2219,208,-458,-1023,-586,-329,117,-65,-327
2,354552,2220,204,-456,-1022,-589,-328,117,-65,-327
2,354558,2220,204,-456,-1022,-589,-328,117,-65,-327
2,354564,2220,204,-456,-1022,-589,-328,117,-65,-327
2,354570,2219,204,-456,-1019,-584,-336,120,-46,-312
2,354575,2219,204,-456,-1019,-584,-336,120,-46,-312
2,354581,2219,204,-456,-1019,-584,-336,120,-46,-312
2,354586,2219,204,-456,-1019,-584,-336,120,-46,-312
2,354591,2220,205,-458,-1019,-576,-330,120,-46,-312
2,354597,2220,205,-458,-1019,-576,-330,120,-46,-312
2,354603,2220,205,-458,-1019,-576,-330,120,-46,-312
2,354608,2218,206,-457,-1020,-585,-334,120,-46,-312
2,354614,2218,206,-457,-1020,-585,-334,120,-46,-312
2,354619,2218,206,-457,-1020,-585,-334,120,-46,-312
2,354624,2218,206,-457,-1020,-585,-334,120,-46,-312
2,354630,2218,205,-452,-1017,-589,-328,120,-46,-312
2,354635,2218,205,-452,-1017,-589,-328,120,-46,-312
2,354640,2218,205,-452,-1017,-589,-328,120,-46,-312
2,354647,2218,205,-452,-1017,-589,-328,120,-46,-312
2,354652,2217,207,-460,-1015,-586,-327,120,-46,-312
2,354657,2217,207,-460,-1015,-586,-327,120,-46,-312
2,354663,2217,207,-460,-1015,-586,-327,120,-46,-312
2,354668,2221,206,-458,-1011,-582,-327,120,-46,-312
2,354674,2221,206,-458,-1011,-582,-327,120,-46,-312
2,354679,2221,206,-458,-1011,-582,-327,120,-46,-312
2,354685,2221,206,-458,-1011,-582,-327,120,-46,-312
2,354692,2217,206,-459,-1017,-582,-324,120,-46,-312
2,354697,2217,206,-459,-1017,-582,-324,120,-46,-312
2,354702,2217,206,-459,-1017,-582,-324,120,-46,-312
2,354708,2216,208,-455,-1012,-575,-327,121,-49,-311
2,354714,2216,208,-455,-1012,-575,-327,121,-49,-311
2,354719,2216,208,-455,-1012,-575,-327,121,-49,-311
2,354724,2216,208,-455,-1012,-575,-327,121,-49,-311
2,354731,2215,207,-453,-1011,-579,-322,121,-49,-311
2,354736,2215,207,-453,-1011,-579,-322,121,-49,-311
2,354741,2215,207,-453,-1011,-579,-322,121,-49,-311
2,354747,2215,207,-453,-1011,-579,-322,121,-49,-311
2,354753,2219,205,-455,-1017,-586,-324,121,-49,-311
2,354758,2219,205,-455,-1017,-586,-324,121,-49,-311
2,354763,2219,205,-455,-1017,-586,-324,121,-49,-311
2,354768,2217,207,-454,-1025,-585,-318,121,-49,-311
2,354774,2217,207,-454,-1025,-585,-318,121,-49,-311
2,354779,2217,207,-454,-1025,-585,-318,121,-49,-311
2,354785,2217,207,-454,-1025,-585,-318,121,-49,-311
2,354790,2220,208,-457,-1025,-586,-316,121,-49,-311
2,354795,2220,208,-457,-1025,-586,-316,121,-49,-311
2,354800,2220,208,-457,-1025,-586,-316,121,-49,-311
2,354805,2220,208,-457,-1025,-586,-316,121,-49,-311
2,354810,2216,208,-455,-1018,-579,-320,121,-49,-311
2,354817,2216,208,-455,-1018,-579,-320,121,-49,-311
2,354822,2216,208,-455,-1018,-579,-320,121,-49,-311
2,354827,2216,208,-455,-1018,-579,-320,121,-49,-311
2,354833,2214,207,-448,-1020,-586,-316,106,-50,-318
2,354838,2214,207,-448,-1020,-586,-316,106,-50,-318
2,354844,2214,207,-448,-1020,-586,-316,106,-50,-318
2,354849,2218,206,-459,-1029,-589,-325,106,-50,-318
2,354854,2218,206,-459,-1029,-589,-325,106,-50,-318
2,354861,2218,206,-459,-1029,-589,-325,106,-50,-318
2,354866,2218,206,-459,-1029,-589,-325,106,-50,-318
2,354871,2221,206,-453,-1024,-578,-332,106,-50,-318
2,354877,2221,206,-453,-1024,-578,-332,106,-50,-318
2,354882,2221,206,-453,-1024,-578,-332,106,-50,-318
2,354887,2221,206,-453,-1024,-578,-332,106,-50,-318
2,354893,2219,205,-458,-1023,-582,-327,106,-50,-318
2,354898,2219,205,-458,-1023,-582,-327,106,-50,-318
2,354905,2219,205,-458,-1023,-582,-327,106,-50,-318
2,354910,2220,203,-453,-1026,-581,-329,106,-50,-318
2,354915,2220,203,-453,-1026,-581,-329,106,-50,-318
2,354920,2220,203,-453,-1026,-581,-329,106,-50,-318
2,354926,2220,203,-453,-1026,-581,-329,106,-50,-318
2,354931,2219,203,-458,-1018,-582,-326,106,-50,-318
2,354937,2219,203,-458,-1018,-582,-326,106,-50,-318
2,354942,2219,203,-458,-1018,-582,-326,106,-50,-318
2,354948,2219,203,-458,-1018,-582,-326,106,-50,-318
2,354955,2217,201,-453,-1015,-578,-321,113,-55,-317
2,354962,2217,201,-453,-1015,-578,-321,113,-55,-317
2,354968,2217,201,-453,-1015,-578,-321,113,-55,-317
2,354973,2216,205,-457,-1020,-583,-322,113,-55,-317
2,354978,2216,205,-457,-1020,-583,-322,113,-55,-317
2,354984,2216,205,-457,-1020,-583,-322,113,-55,-317
2,354990,2219,208,-449,-1013,-573,-322,113,-55,-317
2,354996,2219,208,-449,-1013,-573,-322,113,-55,-317
2,355001,2219,208,-449,-1013,-573,-322,113,-55,-317
2,355007,2219,208,-449,-1013,-573,-322,113,-55,-317
2,355012,2219,205,-451,-1022,-582,-325,113,-55,-317
2,355018,2219,205,-451,-1022,-582,-325,113,-55,-317
2,355023,2219,205,-451,-1022,-582,-325,113,-55,-317
2,355030,2220,207,-457,-1017,-581,-319,113,-55,-317
2,355035,2220,207,-457,-1017,-581,-319,113,-55,-317
2,355040,2220,207,-457,-1017,-581,-319,113,-55,-317
2,355046,2220,207,-457,-1017,-581,-319,113,-55,-317
2,355051,2221,206,-455,-1016,-584,-327,113,-55,-317
2,355057,2221,206,-455,-1016,-584,-327,113,-55,-317
2,355062,2221,206,-455,-1016,-584,-327,113,-55,-317
2,355067,2221,206,-455,-1016,-584,-327,113,-55,-317
2,355074,2219,201,-460,-1016,-582,-332,113,-55,-317
2,355079,2219,201,-460,-1016,-582,-332,113,-55,-317
2,355084,2219,201,-460,-1016,-582,-332,113,-55,-317
2,355090,2222,201,-451,-1020,-580,-319,122,-50,-320
2,355095,2222,201,-451,-1020,-580,-319,122,-50,-320
2,355100,2222,201,-451,-1020,-580,-319,122,-50,-320
2,355106,2222,201,-451,-1020,-580,-319,122,-50,-320
2,355111,2219,206,-453,-1027,-588,-317,122,-50,-320
2,355117,2219,206,-453,-1027,-588,-317,122,-50,-320
2,355122,2219,206,-453,-1027,-588,-317,122,-50,-320
2,355127,2219,206,-453,-1027,-588,-317,122,-50,-320
2,355132,2220,207,-454,-1025,-577,-328,122,-50,-320
2,355138,2220,207,-454,-1025,-577,-328,122,-50,-320
2,355142,2220,207,-454,-1025,-577,-328,122,-50,-320
2,355148,2216,202,-459,-1030,-579,-322,122,-50,-320
2,355153,2216,202,-459,-1030,-579,-322,122,-50,-320
2,355160,2216,202,-459,-1030,-579,-322,122,-50,-320
2,355165,2216,202,-459,-1030,-579,-322,122,-50,-320
2,355171,2219,205,-456,-1024,-581,-329,122,-50,-320
2,355176,2219,205,-456,-1024,-581,-329,122,-50,-320
2,355181,2219,205,-456,-1024,-581,-329,122,-50,-320
2,355186,2219,205,-456,-1024,-581,-329,122,-50,-320
2,355192,2219,202,-459,-1027,-585,-332,122,-50,-320
2,355197,2219,202,-459,-1027,-585,-332,122,-50,-320
2,355204,2219,202,-459,-1027,-585,-332,122,-50,-320
2,355209,2220,207,-451,-1012,-582,-322,112,-58,-328
2,355214,2220,207,-451,-1012,-582,-322,112,-58,-328
2,355220,2220,207,-451,-1012,-582,-322,112,-58,-328
2,355225,2220,207,-451,-1012,-582,-322,112,-58,-328
2,355230,2220,205,-451,-1016,-585,-324,112,-58,-328
2,355235,2220,205,-451,-1016,-585,-324,112,-58,-328
2,355240,2220,205,-451,-1016,-585,-324,112,-58,-328
2,355246,2220,205,-451,-1016,-585,-324,112,-58,-328
2,355252,2220,205,-460,-1015,-586,-316,112,-58,-328
2,355257,2220,205,-460,-1015,-586,-316,112,-58,-328
2,355262,2220,205,-460,-1015,-586,-316,112,-58,-328
2,355268,2220,205,-460,-1015,-586,-316,112,-58,-328
2,355274,2222,204,-460,-1018,-583,-320,112,-58,-328
2,355279,2222,204,-460,-1018,-583,-320,112,-58,-328
2,355284,2222,204,-460,-1018,-583,-320,112,-58,-328
2,355290,2219,207,-457,-1021,-581,-331,112,-58,-328
2,355296,2219,207,-457,-1021,-581,-331,112,-58,-328
2,355301,2219,207,-457,-1021,-581,-331,112,-58,-328
2,355306,2219,207,-457,-1021,-581,-331,112,-58,-328
2,355312,2222,209,-456,-1018,-582,-330,112,-58,-328
2,355317,2222,209,-456,-1018,-582,-330,112,-58,-328
2,355323,2222,209,-456,-1018,-582,-330,112,-58,-328
2,355329,2221,207,-460,-1024,-586,-326,112,-58,-328
2,355335,2221,207,-460,-1024,-586,-326,112,-58,-328
2,355340,2221,207,-460,-1024,-586,-326,112,-58,-328
2,355345,2221,207,-460,-1024,-586,-326,112,-58,-328
2,355351,2218,210,-452,-1025,-585,-323,117,-49,-323
2,355356,2218,210,-452,-1025,-585,-323,117,-49,-323
2,355362,2218,210,-452,-1025,-585,-323,117,-49,-323
2,355367,2218,210,-452,-1025,-585,-323,117,-49,-323
2,355373,2219,206,-454,-1017,-582,-321,117,-49,-323
2,355378,2219,206,-454,-1017,-582,-321,117,-49,-323
2,355383,2219,206,-454,-1017,-582,-321,117,-49,-323
2,355388,2219,206,-454,-1017,-582,-321,117,-49,-323
2,355393,2217,204,-454,-1018,-584,-321,117,-49,-323
2,355399,2217,204,-454,-1018,-584,-321,117,-49,-323
2,355404,2217,204,-454,-1018,-584,-321,117,-49,-323
2,355409,2216,202,-451,-1015,-581,-322,117,-49,-323
2,355416,2216,202,-451,-1015,-581,-322,117,-49,-323
2,355421,2216,202,-451,-1015,-581,-322,117,-49,-323
2,355426,2216,202,-451,-1015,-581,-322,117,-49,-323
2,355432,2218,208,-456,-1014,-576,-324,117,-49,-323
2,355437,2218,208,-456,-1014,-576,-324,117,-49,-323
2,355443,2218,208,-456,-1014,-576,-324,117,-49,-323
2,355448,2218,208,-456,-1014,-576,-324,117,-49,-323
2,355453,2216,204,-456,-1005,-581,-329,117,-49,-323
2,355460,2216,204,-456,-1005,-581,-329,117,-49,-323
2,355465,2216,204,-456,-1005,-581,-329,117,-49,-323
2,355470,2217,205,-458,-1011,-581,-323,116,-52,-320
2,355476,2217,205,-458,-1011,-581,-323,116,-52,-320
2,355481,2217,205,-458,-1011,-581,-323,116,-52,-320
2,355487,2217,205,-458,-1011,-581,-323,116,-52,-320
2,355492,2218,205,-457,-1016,-580,-323,116,-52,-320
2,355497,2218,205,-457,-1016,-580,-323,116,-52,-320
2,355503,2218,205,-457,-1016,-580,-323,116,-52,-320
2,355509,2218,205,-457,-1016,-580,-323,116,-52,-320
2,355514,2219,206,-455,-1019,-581,-324,116,-52,-320
2,355519,2219,206,-455,-1019,-581,-324,116,-52,-320
2,355525,2219,206,-455,-1019,-581,-324,116,-52,-320
2,355530,2222,206,-454,-1014,-586,-321,116,-52,-320
2,355536,2222,206,-454,-1014,-586,-321,116,-52,-320
2,355542,2222,206,-454,-1014,-586,-321,116,-52,-320
2,355548,2222,206,-454,-1014,-586,-321,116,-52,-320
2,355553,2220,205,-455,-1015,-576,-321,116,-52,-320
2,355558,2220,205,-455,-1015,-576,-321,116,-52,-320
2,355563,2220,205,-455,-1015,-576,-321,116,-52,-320
2,355569,2223,204,-454,-1021,-578,-322,116,-52,-320
2,355574,2223,204,-454,-1021,-578,-322,116,-52,-320
2,355580,2223,204,-454,-1021,-578,-322,116,-52,-320
2,355586,2223,204,-454,-1021,-578,-322,116,-52,-320
2,355591,2221,205,-454,-1017,-584,-320,120,-60,-318
2,355597,2221,205,-454,-1017,-584,-320,120,-60,-318
2,355602,2221,205,-454,-1017,-584,-320,120,-60,-318
2,355608,2221,205,-454,-1017,-584,-320,120,-60,-318
2,355613,2217,206,-453,-1023,-580,-315,120,-60,-318
2,355619,2217,206,-453,-1023,-580,-315,120,-60,-318
2,355624,2217,206,-453,-1023,-580,-315,120,-60,-318
2,355630,2220,207,-453,-1024,-582,-325,120,-60,-318
2,355635,2220,207,-453,-1024,-582,-325,120,-60,-318
2,355641,2220,207,-453,-1024,-582,-325,120,-60,-318
2,355646,2220,207,-453,-1024,-582,-325,120,-60,-318
2,355651,2219,206,-454,-1019,-588,-326,120,-60,-318
2,355657,2219,206,-454,-1019,-588,-326,120,-60,-318
2,355662,2219,206,-454,-1019,-588,-326,120,-60,-318
2,355667,2219,206,-454,-1019,-588,-326,120,-60,-318
2,355673,2220,206,-454,-1023,-589,-320,120,-60,-318
2,355679,2220,206,-454,-1023,-589,-320,120,-60,-318
2,355684,2220,206,-454,-1023,-589,-320,120,-60,-318
2,355689,2217,206,-458,-1025,-584,-319,120,-60,-318
2,355695,2217,206,-458,-1025,-584,-319,120,-60,-318
2,355700,2217,206,-458,-1025,-584,-319,120,-60,-318
2,355706,2217,206,-458,-1025,-584,-319,120,-60,-318
2,355712,2221,207,-453,-1020,-577,-320,120,-60,-318
2,355717,2221,207,-453,-1020,-577,-320,120,-60,-318
2,355723,2221,207,-453,-1020,-577,-320,120,-60,-318
2,355728,2221,207,-453,-1020,-577,-320,120,-60,-318
2,355733,2218,207,-453,-1024,-588,-316,112,-54,-326
2,355738,2218,207,-453,-1024,-588,-316,112,-54,-326
2,355743,2218,207,-453,-1024,-588,-316,112,-54,-326
2,355748,2218,207,-453,-1024,-588,-316,112,-54,-326
2,355755,2220,207,-452,-1027,-583,-323,112,-54,-326
2,355760,2220,207,-452,-1027,-583,-323,112,-54,-326
2,355765,2220,207,-452,-1027,-583,-323,112,-54,-326
2,355770,2217,206,-459,-1026,-585,-316,112,-54,-326
2,355776,2217,206,-459,-1026,-585,-316,112,-54,-326
2,355781,2217,206,-459,-1026,-585,-316,112,-54,-326
2,355786,2217,206,-459,-1026,-585,-316,112,-54,-326
2,355792,2218,205,-457,-1015,-582,-312,112,-54,-326
2,355796,2218,205,-457,-1015,-582,-312,112,-54,-326
2,355803,2218,205,-457,-1015,-582,-312,112,-54,-326
2,355808,2218,205,-457,-1015,-582,-312,112,-54,-326
2,355813,2219,203,-455,-1014,-587,-319,112,-54,-326
2,355818,2219,203,-455,-1014,-587,-319,112,-54,-326
2,355823,2219,203,-455,-1014,-587,-319,112,-54,-326
2,355828,2219,203,-455,-1014,-587,-319,112,-54,-326
2,355834,2218,205,-449,-1020,-587,-325,112,-54,-326
2,355840,2218,205,-449,-1020,-587,-325,112,-54,-326
2,355846,2218,205,-449,-1020,-587,-325,112,-54,-326
2,355851,2219,205,-448,-1022,-588,-331,109,-49,-319
2,355856,2219,205,-448,-1022,-588,-331,109,-49,-319
2,355862,2219,205,-448,-1022,-588,-331,109,-49,-319
2,355867,2219,205,-448,-1022,-588,-331,109,-49,-319
2,355873,2217,207,-451,-1014,-586,-323,109,-49,-319
2,355878,2217,207,-451,-1014,-586,-323,109,-49,-319
2,355884,2217,207,-451,-1014,-586,-323,109,-49,-319
2,355889,2217,207,-451,-1014,-586,-323,109,-49,-319
2,355893,2218,205,-455,-1019,-582,-328,109,-49,-319
2,355898,2218,205,-455,-1019,-582,-328,109,-49,-319
2,355903,2218,205,-455,-1019,-582,-328,109,-49,-319
2,355908,2218,205,-455,-1019,-582,-328,109,-49,-319
2,355914,2221,206,-457,-1021,-586,-323,109,-49,-319
2,355918,2221,206,-457,-1021,-586,-323,109,-49,-319
2,355922,2221,206,-457,-1021,-586,-323,109,-49,-319
2,355928,2221,206,-457,-1021,-586,-323,109,-49,-319
2,355933,2222,205,-455,-1021,-582,-320,109,-49,-319
2,355938,2222,205,-455,-1021,-582,-320,109,-49,-319
2,355942,2222,205,-455,-1021,-582,-320,109,-49,-319
2,355948,2222,205,-455,-1021,-582,-320,109,-49,-319
2,355954,2219,208,-456,-1023,-585,-326,109,-49,-319
2,355959,2219,208,-456,-1023,-585,-326,109,-49,-319
2,355965,2219,208,-456,-1023,-585,-326,109,-49,-319
2,355971,2219,206,-454,-1027,-582,-322,109,-49,-319
2,355976,2219,206,-454,-1027,-582,-322,109,-49,-319
2,355982,2219,206,-454,-1027,-582,-322,109,-49,-319
2,355987,2219,206,-454,-1027,-582,-322,109,-49,-319
2,355992,2220,205,-454,-1013,-581,-328,110,-42,-326
2,355998,2220,205,-454,-1013,-581,-328,110,-42,-326
2,356003,2220,205,-454,-1013,-581,-328,110,-42,-326
2,356008,2220,205,-454,-1013,-581,-328,110,-42,-326
2,356014,2219,205,-452,-1018,-580,-326,110,-42,-326
2,356020,2219,205,-452,-1018,-580,-326,110,-42,-326
2,356025,2219,205,-452,-1018,-580,-326,110,-42,-326
2,356031,2220,204,-456,-1023,-590,-320,110,-42,-326
2,356036,2220,204,-456,-1023,-590,-320,110,-42,-326
2,356041,2220,204,-456,-1023,-590,-320,110,-42,-326
2,356046,2220,204,-456,-1023,-590,-320,110,-42,-326
2,356052,2219,205,-458,-1016,-586,-318,110,-42,-326
2,356058,2219,205,-458,-1016,-586,-318,110,-42,-326
2,356064,2219,205,-458,-1016,-586,-318,110,-42,-326
2,356069,2219,205,-458,-1016,-586,-318,110,-42,-326
2,356075,2221,205,-456,-1023,-585,-328,110,-42,-326
2,356080,2221,205,-456,-1023,-585,-328,110,-42,-326
2,356085,2221,205,-456,-1023,-585,-328,110,-42,-326
2,356091,2221,207,-451,-1023,-587,-323,110,-42,-326
2,356097,2221,207,-451,-1023,-587,-323,110,-42,-326
2,356103,2221,207,-451,-1023,-587,-323,110,-42,-326
2,356109,2221,207,-451,-1023,-587,-323,110,-42,-326
2,356114,2221,204,-453,-1021,-580,-318,122,-60,-314
2,356119,2221,204,-453,-1021,-580,-318,122,-60,-314
2,356124,2221,204,-453,-1021,-580,-318,122,-60,-314
2,356129,2222,204,-452,-1026,-585,-333,122,-60,-314
2,356135,2222,204,-452,-1026,-585,-333,122,-60,-314
2,356141,2222,204,-452,-1026,-585,-333,122,-60,-314
2,356147,2222,204,-452,-1026,-585,-333,122,-60,-314
2,356152,2221,205,-455,-1021,-581,-335,122,-60,-314
2,356157,2221,205,-455,-1021,-581,-335,122,-60,-314
2,356163,2221,205,-455,-1021,-581,-335,122,-60,-314
2,356168,2221,205,-455,-1021,-581,-335,122,-60,-314
2,356173,2218,204,-458,-1017,-583,-327,122,-60,-314
2,356178,2218,204,-458,-1017,-583,-327,122,-60,-314
2,356185,2218,204,-458,-1017,-583,-327,122,-60,-314
2,356190,2219,204,-452,-1016,-579,-325,122,-60,-314
2,356196,2219,204,-452,-1016,-579,-325,122,-60,-314
2,356201,2219,204,-452,-1016,-579,-325,122,-60,-314
2,356206,2219,204,-452,-1016,-579,-325,122,-60,-314
2,356212,2220,208,-457,-1019,-586,-323,122,-60,-314
2,356217,2220,208,-457,-1019,-586,-323,122,-60,-314
2,356222,2220,208,-457,-1019,-586,-323,122,-60,-314
2,356229,2220,208,-457,-1019,-586,-323,122,-60,-314
2,356235,2217,207,-456,-1016,-588,-324,115,-51,-319
2,356240,2217,207,-456,-1016,-588,-324,115,-51,-319
2,356245,2217,207,-456,-1016,-588,-324,115,-51,-319
2,356250,2218,204,-451,-1023,-586,-330,115,-51,-319
2,356256,2218,204,-451,-1023,-586,-330,115,-51,-319
2,356261,2218,204,-451,-1023,-586,-330,115,-51,-319
2,356267,2218,204,-451,-1023,-586,-330,115,-51,-319
2,356272,2220,203,-451,-1015,-579,-331,115,-51,-319
2,356278,2220,203,-451,-1015,-579,-331,115,-51,-319
2,356284,2220,203,-451,-1015,-579,-331,115,-51,-319
2,356289,2220,203,-451,-1015,-579,-331,115,-51,-319
2,356294,2219,208,-455,-1025,-579,-326,115,-51,-319
2,356299,2219,208,-455,-1025,-579,-326,115,-51,-319
2,356304,2219,208,-455,-1025,-579,-326,115,-51,-319
2,356310,2218,205,-456,-1020,-582,-319,115,-51,-319
2,356316,2218,205,-456,-1020,-582,-319,115,-51,-319
2,356322,2218,205,-456,-1020,-582,-319,115,-51,-319
2,356327,2218,205,-456,-1020,-582,-319,115,-51,-319
2,356333,2219,205,-449,-1029,-583,-329,115,-51,-319
2,356338,2219,205,-449,-1029,-583,-329,115,-51,-319
2,356343,2219,205,-449,-1029,-583,-329,115,-51,-319
2,356349,2219,205,-449,-1029,-583,-329,115,-51,-319
2,356355,2221,206,-455,-1024,-579,-326,115,-51,-319
2,356361,2221,206,-455,-1024,-579,-326,115,-51,-319
2,356365,2221,206,-455,-1024,-579,-326,115,-51,-319
2,356371,2219,208,-452,-1016,-580,-327,111,-51,-331
2,356376,2219,208,-452,-1016,-580,-327,111,-51,-331
2,356381,2219,208,-452,-1016,-580,-327,111,-51,-331
2,356386,2219,208,-452,-1016,-580,-327,111,-51,-331
2,356392,2218,205,-453,-1024,-584,-326,111,-51,-331
2,356398,2218,205,-453,-1024,-584,-326,111,-51,-331
2,356404,2218,205,-453,-1024,-584,-326,111,-51,-331
2,356409,2218,205,-453,-1024,-584,-326,111,-51,-331
2,356414,2218,206,-456,-1015,-583,-325,111,-51,-331
2,356420,2218,206,-456,-1015,-583,-325,111,-51,-331
2,356425,2218,206,-456,-1015,-583,-325,111,-51,-331
2,356430,2219,206,-451,-1024,-586,-321,111,-51,-331
2,356436,2219,206,-451,-1024,-586,-321,111,-51,-331
2,356442,2219,206,-451,-1024,-586,-321,111,-51,-331
2,356448,2219,206,-451,-1024,-586,-321,111,-51,-331
2,356453,2219,207,-453,-1022,-577,-325,111,-51,-331
2,356459,2219,207,-453,-1022,-577,-325,111,-51,-331
2,356464,2219,207,-453,-1022,-577,-325,111,-51,-331
2,356470,2219,204,-453,-1014,-587,-329,111,-51,-331
2,356476,2219,204,-453,-1014,-587,-329,111,-51,-331
2,356482,2219,204,-453,-1014,-587,-329,111,-51,-331
2,356487,2219,204,-453,-1014,-587,-329,111,-51,-331
2,356492,2218,205,-451,-1018,-583,-320,107,-49,-317
2,356497,2218,205,-451,-1018,-583,-320,107,-49,-317
2,356503,2218,205,-451,-1018,-583,-320,107,-49,-317
2,356508,2218,205,-451,-1018,-583,-320,107,-49,-317
2,356513,2215,204,-457,-1017,-579,-325,107,-49,-317
2,356519,2215,204,-457,-1017,-579,-325,107,-49,-317
2,356525,2215,204,-457,-1017,-579,-325,107,-49,-317
2,356530,2215,204,-457,-1017,-579,-325,107,-49,-317
2,356535,2220,204,-461,-1016,-585,-325,107,-49,-317
2,356540,2220,204,-461,-1016,-585,-325,107,-49,-317
2,356546,2220,204,-461,-1016,-585,-325,107,-49,-317
2,356552,2217,204,-457,-1015,-581,-323,107,-49,-317
2,356558,2217,204,-457,-1015,-581,-323,107,-49,-317
2,356563,2217,204,-457,-1015,-581,-323,107,-49,-317
2,356569,2217,204,-457,-1015,-581,-323,107,-49,-317
2,356575,2219,204,-462,-1017,-583,-326,107,-49,-317
2,356580,2219,204,-462,-1017,-583,-326,107,-49,-317
2,356586,2219,204,-462,-1017,-583,-326,107,-49,-317
2,356591,2220,206,-460,-1014,-584,-323,107,-49,-317
2,356597,2220,206,-460,-1014,-584,-323,107,-49,-317
2,356602,2220,206,-460,-1014,-584,-323,107,-49,-317
2,356609,2220,206,-460,-1014,-584,-323,107,-49,-317
2,356614,2221,204,-455,-1021,-583,-323,107,-49,-317
2,356620,2221,204,-455,-1021,-583,-323,107,-49,-317
2,356625,2221,204,-455,-1021,-583,-323,107,-49,-317
2,356630,2219,206,-450,-1012,-577,-328,114,-49,-317
2,356635,2219,206,-450,-1012,-577,-328,114,-54,-318
2,356641,2219,206,-450,-1012,-577,-328,114,-54,-318
2,356646,2219,206,-450,-1012,-577,-328,114,-54,-318
2,356652,2224,206,-457,-1015,-581,-327,114,-54,-318
2,356658,2224,206,-457,-1015,-581,-327,114,-54,-318
2,356663,2224,206,-457,-1015,-581,-327,114,-54,-318
2,356669,2224,206,-457,-1015,-581,-327,114,-54,-318
2,356674,2221,203,-446,-1025,-587,-330,114,-54,-318
2,356680,2221,203,-446,-1025,-587,-330,114,-54,-318
2,356685,2221,203,-446,-1025,-587,-330,114,-54,-318
2,356690,2221,204,-455,-1018,-578,-325,114,-54,-318
2,356697,2221,204,-455,-1018,-578,-325,114,-54,-318
2,356702,2221,204,-455,-1018,-578,-325,114,-54,-318
2,356707,2221,204,-455,-1018,-578,-325,114,-54,-318
2,356713,2217,205,-455,-1016,-583,-325,114,-54,-318
2,356718,2217,205,-455,-1016,-583,-325,114,-54,-318
2,356723,2217,205,-455,-1016,-583,-325,114,-54,-318
2,356729,2217,205,-455,-1016,-583,-325,114,-54,-318
2,356734,2220,205,-458,-1017,-583,-320,114,-54,-318
2,356740,2220,205,-458,-1017,-583,-320,114,-54,-318
2,356745,2220,205,-458,-1017,-583,-320,114,-54,-318
2,356751,2219,203,-456,-1019,-580,-318,114,-50,-318
2,356756,2219,203,-456,-1019,-580,-318,114,-50,-318
2,356762,2219,203,-456,-1019,-580,-318,114,-50,-318
2,356768,2219,203,-456,-1019,-580,-318,114,-50,-318
2,356773,2217,206,-451,-1016,-578,-325,114,-50,-318
2,356779,2217,206,-451,-1016,-578,-325,114,-50,-318
2,356785,2217,206,-451,-1016,-578,-325,114,-50,-318
2,356790,2217,206,-451,-1016,-578,-325,114,-50,-318
2,356796,2220,205,-454,-1019,-580,-331,114,-50,-318
2,356802,2220,205,-454,-1019,-580,-331,114,-50,-318
2,356807,2220,205,-454,-1019,-580,-331,114,-50,-318
2,356813,2220,206,-456,-1021,-577,-326,114,-50,-318
2,356819,2220,206,-456,-1021,-577,-326,114,-50,-318
2,356825,2220,206,-456,-1021,-577,-326,114,-50,-318
2,356830,2220,206,-456,-1021,-577,-326,114,-50,-318
2,356836,2216,209,-456,-1021,-583,-324,114,-50,-318
2,356841,2216,209,-456,-1021,-583,-324,114,-50,-318
2,356846,2216,209,-456,-1021,-583,-324,114,-50,-318
2,356852,2218,206,-449,-1014,-579,-319,114,-50,-318
2,356857,2218,206,-449,-1014,-579,-319,114,-50,-318
2,356864,2218,206,-449,-1014,-579,-319,114,-50,-318
2,356869,2218,206,-449,-1014,-579,-319,114,-50,-318
2,356874,2222,209,-455,-1018,-584,-322,118,-56,-312
2,356880,2222,209,-455,-1018,-584,-322,118,-56,-312
2,356885,2222,209,-455,-1018,-584,-322,118,-56,-312
2,356890,2218,204,-454,-1016,-579,-329,118,-56,-312
2,356896,2218,204,-454,-1016,-579,-329,118,-56,-312
2,356901,2218,204,-454,-1016,-579,-329,118,-56,-312
2,356907,2218,204,-454,-1016,-579,-329,118,-56,-312
2,356913,2220,205,-457,-1018,-587,-330,118,-56,-312
2,356918,2220,205,-457,-1018,-587,-330,118,-56,-312
2,356923,2220,205,-457,-1018,-587,-330,118,-56,-312
2,356929,2220,205,-457,-1018,-587,-330,118,-56,-312
2,356934,2220,202,-455,-1013,-582,-328,118,-56,-312
2,356939,2220,202,-455,-1013,-582,-328,118,-56,-312
2,356944,2220,202,-455,-1013,-582,-328,118,-56,-312
2,356951,2220,202,-455,-1013,-582,-328,118,-56,-312
2,356956,2218,206,-451,-1019,-585,-329,118,-56,-312
2,356961,2218,206,-451,-1019,-585,-329,118,-56,-312
2,356967,2218,206,-451,-1019,-585,-329,118,-56,-312
2,356973,2218,204,-457,-1022,-583,-323,118,-56,-312
2,356978,2218,204,-457,-1022,-583,-323,118,-56,-312
2,356983,2218,204,-457,-1022,-583,-323,118,-56,-312
2,356988,2218,204,-457,-1022,-583,-323,118,-56,-312
2,356994,2217,204,-454,-1019,-576,-327,118,-56,-312
2,356999,2217,204,-454,-1019,-576,-327,118,-56,-312
2,357005,2217,204,-454,-1019,-576,-327,118,-56,-312
2,357010,2217,204,-454,-1019,-576,-327,118,-56,-312
2,357016,2218,206,-454,-1022,-582,-328,111,-53,-321
2,357021,2218,206,-454,-1022,-582,-328,111,-53,-321
2,357027,2218,206,-454,-1022,-582,-328,111,-53,-321
2,357032,2220,203,-457,-1022,-589,-322,111,-53,-321
2,357038,2220,203,-457,-1022,-589,-322,111,-53,-321
2,357043,2220,203,-457,-1022,-589,-322,111,-53,-321
2,357049,2220,203,-457,-1022,-589,-322,111,-53,-321
2,357054,2220,206,-453,-1019,-584,-323,111,-53,-321
2,357060,2220,206,-453,-1019,-584,-323,111,-53,-321
2,357065,2220,206,-453,-1019,-584,-323,111,-53,-321
2,357071,2217,202,-455,-1014,-581,-326,111,-53,-321
2,357076,2217,202,-455,-1014,-581,-326,111,-53,-321
2,357082,2217,202,-455,-1014,-581,-326,111,-53,-321
2,357087,2217,202,-455,-1014,-581,-326,111,-53,-321
2,357092,2220,206,-455,-1019,-584,-331,111,-53,-321
2,357098,2220,206,-455,-1019,-584,-331,111,-53,-321
2,357103,2220,206,-455,-1019,-584,-331,111,-53,-321
2,357108,2220,206,-455,-1019,-584,-331,111,-53,-321
2,357113,2219,204,-454,-1025,-586,-326,111,-53,-321
2,357120,2219,204,-454,-1025,-586,-326,111,-53,-321
2,357125,2219,204,-454,-1025,-586,-326,111,-53,-321
2,357131,2223,205,-454,-1023,-588,-329,111,-53,-321
2,357137,2223,205,-454,-1023,-588,-329,107,-45,-321
2,357142,2223,205,-454,-1023,-588,-329,107,-45,-321
2,357147,2223,205,-454,-1023,-588,-329,107,-45,-321
2,357153,2220,204,-458,-1019,-586,-327,107,-45,-321
2,357159,2220,204,-458,-1019,-586,-327,107,-45,-321
2,357165,2220,204,-458,-1019,-586,-327,107,-45,-321
2,357171,2220,204,-458,-1019,-586,-327,107,-45,-321
2,357176,2220,207,-455,-1026,-583,-330,107,-45,-321
2,357182,2220,207,-455,-1026,-583,-330,107,-45,-321
2,357186,2220,207,-455,-1026,-583,-330,107,-45,-321
2,357192,2218,206,-451,-1020,-584,-321,107,-45,-321
2,357197,2218,206,-451,-1020,-584,-321,107,-45,-321
2,357203,2218,206,-451,-1020,-584,-321,107,-45,-321
2,357209,2218,206,-451,-1020,-584,-321,107,-45,-321
2,357215,2219,204,-459,-1018,-577,-328,107,-45,-321
2,357220,2219,204,-459,-1018,-577,-328,107,-45,-321
2,357225,2219,204,-459,-1018,-577,-328,107,-45,-321
2,357230,2219,204,-459,-1018,-577,-328,107,-45,-321
2,357235,2216,205,-456,-1014,-577,-322,107,-45,-321
2,357240,2216,205,-456,-1014,-577,-322,107,-45,-321
