imu,time,ax,ay,az,gx,gy,gz,mx,my,mz
0,344249,2460,693,-607,-1490,-313,-39,156,-68,-164
0,344256,2460,693,-607,-1490,-313,-39,156,-68,-164
0,344263,2460,695,-608,-1487,-314,-42,156,-68,-164
0,344270,2460,695,-608,-1487,-314,-42,156,-68,-164
0,344278,2460,695,-608,-1487,-314,-42,156,-68,-164
0,344285,2460,695,-609,-1489,-316,-47,156,-68,-164
0,344292,2460,695,-609,-1489,-316,-47,156,-68,-164
0,344299,2461,693,-612,-1493,-314,-47,156,-68,-164
0,344305,2461,693,-612,-1493,-314,-47,156,-68,-164
0,344311,2461,693,-612,-1493,-314,-47,156,-68,-164
0,344316,2461,693,-612,-1493,-314,-47,156,-68,-164
0,344322,2461,692,-612,-1491,-319,-51,156,-68,-164
0,344328,2461,692,-612,-1491,-319,-51,156,-68,-164
0,344333,2461,692,-612,-1491,-319,-51,156,-68,-164
0,344339,2461,692,-612,-1491,-319,-51,156,-68,-164
0,344345,2461,689,-609,-1491,-309,-46,156,-68,-164
0,344351,2461,689,-609,-1491,-309,-46,156,-68,-164
0,344356,2461,689,-609,-1491,-309,-46,156,-68,-164
0,344363,2462,692,-607,-1488,-315,-42,158,-70,-156
0,344368,2462,692,-607,-1488,-315,-42,158,-70,-156
0,344374,2462,692,-607,-1488,-315,-42,158,-70,-156
0,344379,2460,693,-611,-1490,-314,-43,158,-70,-156
0,344385,2460,693,-611,-1490,-314,-43,158,-70,-156
0,344391,2460,693,-611,-1490,-314,-43,158,-70,-156
0,344396,2460,693,-611,-1490,-314,-43,158,-70,-156
0,344402,2460,690,-613,-1492,-313,-44,158,-70,-156
0,344409,2460,690,-613,-1492,-313,-44,158,-70,-156
0,344415,2460,690,-613,-1492,-313,-44,158,-70,-156
0,344421,2458,690,-611,-1490,-318,-45,158,-70,-156
0,344427,2458,690,-611,-1490,-318,-45,158,-70,-156
0,344433,2458,690,-611,-1490,-318,-45,158,-70,-156
0,344440,2456,694,-608,-1481,-316,-46,158,-70,-156
0,344446,2456,694,-608,-1481,-316,-46,158,-70,-156
0,344453,2456,694,-608,-1481,-316,-46,158,-70,-156
0,344460,2459,692,-610,-1489,-311,-51,158,-70,-156
0,344466,2459,692,-610,-1489,-311,-51,158,-70,-156
0,344473,2459,692,-610,-1489,-311,-51,158,-70,-156
0,344480,2463,692,-608,-1487,-308,-40,158,-70,-162
0,344487,2463,692,-608,-1487,-308,-40,158,-70,-162
0,344495,2463,692,-608,-1487,-308,-40,158,-70,-162
0,344502,2460,692,-605,-1487,-315,-42,158,-70,-162
0,344508,2460,692,-605,-1487,-315,-42,158,-70,-162
0,344514,2460,692,-605,-1487,-315,-42,158,-70,-162
0,344520,2461,693,-608,-1486,-314,-42,158,-70,-162
0,344526,2461,693,-608,-1486,-314,-42,158,-70,-162
0,344534,2461,693,-608,-1486,-314,-42,158,-70,-162
0,344539,2461,693,-608,-1486,-314,-42,158,-70,-162
0,344546,2462,693,-604,-1482,-313,-44,158,-70,-162
0,344552,2462,693,-604,-1482,-313,-44,158,-70,-162
0,344557,2462,693,-604,-1482,-313,-44,158,-70,-162
0,344562,2459,694,-609,-1484,-310,-45,158,-70,-162
0,344568,2459,694,-609,-1484,-310,-45,158,-70,-162
0,344574,2459,694,-609,-1484,-310,-45,158,-70,-162
0,344580,2458,694,-613,-1495,-317,-49,158,-70,-162
0,344585,2458,694,-613,-1495,-317,-49,158,-70,-162
0,344591,2458,694,-613,-1495,-317,-49,158,-70,-162
0,344596,2458,694,-613,-1495,-317,-49,158,-70,-162
0,344602,2459,694,-607,-1492,-317,-44,168,-74,-164
0,344607,2459,694,-607,-1492,-317,-44,168,-74,-164
0,344613,2459,694,-607,-1492,-317,-44,168,-74,-164
0,344620,2458,692,-606,-1490,-311,-54,168,-74,-164
0,344625,2458,692,-606,-1490,-311,-54,168,-74,-164
0,344631,2458,692,-606,-1490,-311,-54,168,-74,-164
0,344637,2458,692,-606,-1490,-311,-54,168,-74,-164
0,344642,2461,694,-615,-1481,-310,-47,168,-74,-164
0,344648,2461,694,-615,-1481,-310,-47,168,-74,-164
0,344654,2461,694,-615,-1481,-310,-47,168,-74,-164
0,344659,2461,694,-615,-1481,-310,-47,168,-74,-164
0,344664,2459,695,-606,-1486,-309,-42,168,-74,-164
0,344669,2459,695,-606,-1486,-309,-42,168,-74,-164
0,344675,2459,695,-606,-1486,-309,-42,168,-74,-164
0,344682,2460,698,-607,-1493,-310,-48,168,-74,-164
0,344688,2460,698,-607,-1493,-310,-48,168,-74,-164
0,344694,2460,698,-607,-1493,-310,-48,168,-74,-164
0,344700,2459,692,-607,-1488,-312,-44,168,-74,-164
0,344706,2459,692,-607,-1488,-312,-44,168,-74,-164
0,344711,2459,692,-607,-1488,-312,-44,168,-74,-164
0,344716,2459,692,-607,-1488,-312,-44,168,-74,-164
0,344721,2459,693,-612,-1492,-310,-40,168,-74,-164
0,344727,2459,693,-612,-1492,-310,-40,168,-74,-164
0,344733,2459,693,-612,-1492,-310,-40,168,-74,-164
0,344738,2459,693,-612,-1492,-310,-40,168,-74,-164
0,344744,2460,694,-610,-1489,-315,-47,162,-78,-158
0,344751,2460,694,-610,-1489,-315,-47,162,-78,-158
0,344756,2460,694,-610,-1489,-315,-47,162,-78,-158
0,344762,2457,693,-612,-1486,-321,-39,162,-78,-158
0,344768,2457,693,-612,-1486,-321,-39,162,-78,-158
0,344773,2457,693,-612,-1486,-321,-39,162,-78,-158
0,344778,2457,693,-612,-1486,-321,-39,162,-78,-158
0,344784,2462,694,-611,-1485,-316,-42,162,-78,-158
0,344790,2462,694,-611,-1485,-316,-42,162,-78,-158
0,344795,2462,694,-611,-1485,-316,-42,162,-78,-158
0,344800,2464,696,-607,-1492,-316,-45,162,-78,-158
0,344806,2464,696,-607,-1492,-316,-45,162,-78,-158
0,344812,2464,696,-607,-1492,-316,-45,162,-78,-158
0,344817,2464,696,-607,-1492,-316,-45,162,-78,-158
0,344823,2460,694,-608,-1491,-318,-46,162,-78,-158
0,344829,2460,694,-608,-1491,-318,-46,162,-78,-158
0,344836,2460,694,-608,-1491,-318,-46,162,-78,-158
0,344842,2460,690,-607,-1491,-314,-46,162,-78,-158
0,344848,2460,690,-607,-1491,-314,-46,162,-78,-158
0,344854,2460,690,-607,-1491,-314,-46,162,-78,-158
0,344859,2460,692,-603,-1493,-315,-48,162,-78,-158
0,344865,2460,692,-603,-1493,-315,-48,165,-67,-167
0,344871,2460,692,-603,-1493,-315,-48,165,-67,-167
0,344878,2460,692,-603,-1493,-315,-48,165,-67,-167
0,344885,2460,693,-611,-1497,-320,-53,165,-67,-167
0,344891,2460,693,-611,-1497,-320,-53,165,-67,-167
0,344897,2460,693,-611,-1497,-320,-53,165,-67,-167
0,344903,2460,693,-611,-1487,-314,-49,165,-67,-167
0,344909,2460,693,-611,-1487,-314,-49,165,-67,-167
0,344915,2460,693,-611,-1487,-314,-49,165,-67,-167
0,344921,2463,691,-603,-1487,-313,-51,165,-67,-167
0,344926,2463,691,-603,-1487,-313,-51,165,-67,-167
0,344932,2463,691,-603,-1487,-313,-51,165,-67,-167
0,344937,2463,691,-603,-1487,-313,-51,165,-67,-167
0,344943,2460,692,-605,-1488,-313,-48,165,-67,-167
0,344949,2460,692,-605,-1488,-313,-48,165,-67,-167
0,344954,2460,692,-605,-1488,-313,-48,165,-67,-167
0,344961,2462,691,-608,-1490,-314,-47,165,-67,-167
0,344967,2462,691,-608,-1490,-314,-47,165,-67,-167
0,344972,2462,691,-608,-1490,-314,-47,165,-67,-167
0,344978,2462,691,-608,-1490,-314,-47,165,-67,-167
0,344984,2463,694,-606,-1486,-312,-43,162,-74,-156
0,344989,2463,694,-606,-1486,-312,-43,162,-74,-156
0,344995,2463,694,-606,-1486,-312,-43,162,-74,-156
0,345000,2463,694,-606,-1486,-312,-43,162,-74,-156
0,345007,2463,694,-606,-1486,-312,-43,162,-74,-156
0,345012,2463,694,-606,-1486,-312,-43,162,-74,-156
0,345017,2463,694,-606,-1486,-312,-43,162,-74,-156
0,345022,2459,692,-613,-1483,-313,-50,162,-74,-156
0,345028,2459,692,-613,-1483,-313,-50,162,-74,-156
0,345034,2459,692,-613,-1483,-313,-50,162,-74,-156
0,345039,2459,692,-613,-1483,-313,-50,162,-74,-156
0,345044,2460,696,-611,-1485,-306,-46,162,-74,-156
0,345051,2460,696,-611,-1485,-306,-46,162,-74,-156
0,345056,2460,696,-611,-1485,-306,-46,162,-74,-156
0,345061,2459,694,-610,-1487,-306,-51,162,-74,-156
0,345066,2459,694,-610,-1487,-306,-51,162,-74,-156
0,345072,2459,694,-610,-1487,-306,-51,162,-74,-156
0,345077,2459,694,-610,-1487,-306,-51,162,-74,-156
0,345082,2458,690,-613,-1488,-311,-51,162,-74,-156
0,345088,2458,690,-613,-1488,-311,-51,162,-74,-156
0,345094,2458,690,-613,-1488,-311,-51,162,-74,-156
0,345099,2458,690,-613,-1488,-311,-51,162,-74,-156
0,345105,2458,690,-613,-1488,-311,-51,145,-77,-165
0,345110,2458,690,-613,-1488,-311,-51,145,-77,-165
0,345115,2458,690,-613,-1488,-311,-51,145,-77,-165
0,345120,2461,694,-611,-1495,-320,-42,145,-77,-165
0,345126,2461,694,-611,-1495,-320,-42,145,-77,-165
0,345132,2461,694,-611,-1495,-320,-42,145,-77,-165
0,345138,2461,694,-611,-1495,-320,-42,145,-77,-165
0,345144,2463,691,-607,-1493,-311,-41,145,-77,-165
0,345150,2463,691,-607,-1493,-311,-41,145,-77,-165
0,345156,2463,691,-607,-1493,-311,-41,145,-77,-165
0,345162,2461,691,-616,-1489,-309,-48,145,-77,-165
0,345167,2461,691,-616,-1489,-309,-48,145,-77,-165
0,345172,2461,691,-616,-1489,-309,-48,145,-77,-165
0,345179,2461,691,-616,-1489,-309,-48,145,-77,-165
0,345184,2460,693,-611,-1488,-312,-51,145,-77,-165
0,345190,2460,693,-611,-1488,-312,-51,145,-77,-165
0,345195,2460,693,-611,-1488,-312,-51,145,-77,-165
0,345201,2461,690,-610,-1493,-313,-45,145,-77,-165
0,345207,2461,690,-610,-1493,-313,-45,145,-77,-165
0,345212,2461,690,-610,-1493,-313,-45,145,-77,-165
0,345219,2461,690,-610,-1493,-313,-45,145,-77,-165
0,345226,2461,694,-612,-1488,-316,-48,169,-69,-159
0,345231,2461,694,-612,-1488,-316,-48,169,-69,-159
0,345237,2461,694,-612,-1488,-316,-48,169,-69,-159
0,345243,2461,692,-608,-1486,-318,-48,169,-69,-159
0,345249,2461,692,-608,-1486,-318,-48,169,-69,-159
0,345255,2461,692,-608,-1486,-318,-48,169,-69,-159
0,345262,2462,692,-608,-1486,-315,-45,169,-69,-159
0,345267,2462,692,-608,-1486,-315,-45,169,-69,-159
0,345273,2462,692,-608,-1486,-315,-45,169,-69,-159
0,345278,2462,692,-608,-1486,-315,-45,169,-69,-159
0,345283,2458,693,-606,-1491,-317,-37,169,-69,-159
0,345289,2458,693,-606,-1491,-317,-37,169,-69,-159
0,345294,2458,693,-606,-1491,-317,-37,169,-69,-159
0,345299,2458,693,-606,-1491,-317,-37,169,-69,-159
0,345306,2460,690,-608,-1490,-318,-43,169,-69,-159
0,345311,2460,690,-608,-1490,-318,-43,169,-69,-159
0,345317,2460,690,-608,-1490,-318,-43,169,-69,-159
0,345322,2461,692,-611,-1489,-310,-41,169,-69,-159
0,345328,2461,692,-611,-1489,-310,-41,169,-69,-159
0,345334,2461,692,-611,-1489,-310,-41,169,-69,-159
0,345339,2461,691,-610,-1487,-314,-42,169,-69,-159
0,345346,2461,691,-610,-1487,-314,-42,169,-69,-159
0,345351,2461,691,-610,-1487,-314,-42,169,-69,-159
0,345356,2461,691,-610,-1487,-314,-42,169,-69,-159
0,345362,2460,695,-612,-1488,-316,-39,157,-71,-161
0,345367,2460,695,-612,-1488,-316,-39,157,-71,-161
0,345373,2460,695,-612,-1488,-316,-39,157,-71,-161
0,345380,2461,696,-606,-1498,-309,-51,157,-71,-161
0,345385,2461,696,-606,-1498,-309,-51,157,-71,-161
0,345392,2461,696,-606,-1498,-309,-51,157,-71,-161
0,345397,2461,696,-606,-1498,-309,-51,157,-71,-161
0,345403,2460,695,-614,-1491,-314,-49,157,-71,-161
0,345408,2460,695,-614,-1491,-314,-49,157,-71,-161
0,345413,2460,695,-614,-1491,-314,-49,157,-71,-161
0,345418,2460,695,-614,-1491,-314,-49,157,-71,-161
0,345424,2461,691,-608,-1486,-319,-45,157,-71,-161
0,345430,2461,691,-608,-1486,-319,-45,157,-71,-161
0,345435,2461,691,-608,-1486,-319,-45,157,-71,-161
0,345441,2460,693,-616,-1491,-321,-49,157,-71,-161
0,345445,2460,693,-616,-1491,-321,-49,157,-71,-161
0,345450,2460,693,-616,-1491,-321,-49,157,-71,-161
0,345456,2460,693,-616,-1491,-321,-49,157,-71,-161
0,345462,2460,693,-606,-1485,-315,-44,157,-71,-161
0,345467,2460,693,-606,-1485,-315,-44,157,-71,-161
0,345474,2460,693,-606,-1485,-315,-44,157,-71,-161
0,345480,2459,691,-608,-1489,-311,-49,150,-68,-150
0,345485,2459,691,-608,-1489,-311,-49,150,-68,-150
0,345491,2459,691,-608,-1489,-311,-49,150,-68,-150
0,345496,2459,691,-608,-1489,-311,-49,150,-68,-150
0,345502,2459,692,-610,-1480,-311,-39,150,-68,-150
0,345507,2459,692,-610,-1480,-311,-39,150,-68,-150
0,345512,2459,692,-610,-1480,-311,-39,150,-68,-150
0,345518,2459,692,-610,-1480,-311,-39,150,-68,-150
0,345524,2459,693,-610,-1489,-309,-41,150,-68,-150
0,345529,2459,693,-610,-1489,-309,-41,150,-68,-150
0,345535,2459,693,-610,-1489,-309,-41,150,-68,-150
0,345540,2459,692,-610,-1484,-303,-45,150,-68,-150
0,345546,2459,692,-610,-1484,-303,-45,150,-68,-150
0,345550,2459,692,-610,-1484,-303,-45,150,-68,-150
0,345556,2459,692,-610,-1484,-303,-45,150,-68,-150
0,345562,2457,695,-614,-1484,-305,-39,150,-68,-150
0,345568,2457,695,-614,-1484,-305,-39,150,-68,-150
0,345573,2457,695,-614,-1484,-305,-39,150,-68,-150
0,345579,2457,695,-614,-1484,-305,-39,150,-68,-150
0,345585,2461,695,-613,-1483,-307,-50,150,-68,-150
0,345591,2461,695,-613,-1483,-307,-50,150,-68,-150
0,345597,2461,695,-613,-1483,-307,-50,150,-68,-150
0,345603,2460,693,-609,-1487,-308,-47,165,-73,-155
0,345608,2460,693,-609,-1487,-308,-47,165,-73,-155
0,345614,2460,693,-609,-1487,-308,-47,165,-73,-155
0,345621,2460,692,-610,-1495,-312,-45,165,-73,-155
0,345627,2460,692,-610,-1495,-312,-45,165,-73,-155
0,345632,2460,692,-610,-1495,-312,-45,165,-73,-155
0,345638,2460,692,-610,-1495,-312,-45,165,-73,-155
0,345644,2461,692,-607,-1498,-310,-50,165,-73,-155
0,345650,2461,692,-607,-1498,-310,-50,165,-73,-155
0,345656,2461,692,-607,-1498,-310,-50,165,-73,-155
0,345662,2459,691,-609,-1492,-316,-41,165,-73,-155
0,345668,2459,691,-609,-1492,-316,-41,165,-73,-155
0,345674,2459,691,-609,-1492,-316,-41,165,-73,-155
0,345681,2457,691,-610,-1487,-316,-41,165,-73,-155
0,345689,2457,691,-610,-1487,-316,-41,165,-73,-155
0,345696,2457,691,-610,-1487,-316,-41,165,-73,-155
0,345702,2460,689,-610,-1491,-313,-44,165,-73,-155
0,345708,2460,689,-610,-1491,-313,-44,165,-73,-155
0,345714,2460,689,-610,-1491,-313,-44,165,-73,-155
0,345719,2461,692,-605,-1489,-310,-42,158,-73,-155
0,345725,2461,692,-605,-1489,-310,-42,158,-66,-166
0,345732,2461,692,-605,-1489,-310,-42,158,-66,-166
0,345738,2461,692,-605,-1489,-310,-42,158,-66,-166
0,345743,2460,692,-609,-1496,-311,-41,158,-66,-166
0,345749,2460,692,-609,-1496,-311,-41,158,-66,-166
0,345755,2460,692,-609,-1496,-311,-41,158,-66,-166
0,345761,2456,692,-608,-1490,-314,-46,158,-66,-166
0,345766,2456,692,-608,-1490,-314,-46,158,-66,-166
0,345772,2456,692,-608,-1490,-314,-46,158,-66,-166
0,345778,2456,692,-608,-1490,-314,-46,158,-66,-166
0,345783,2459,692,-613,-1484,-317,-45,158,-66,-166
0,345788,2459,692,-613,-1484,-317,-45,158,-66,-166
0,345793,2459,692,-613,-1484,-317,-45,158,-66,-166
0,345799,2459,692,-613,-1484,-317,-45,158,-66,-166
0,345804,2461,692,-604,-1492,-319,-43,158,-66,-166
0,345810,2461,692,-604,-1492,-319,-43,158,-66,-166
0,345816,2461,692,-604,-1492,-319,-43,158,-66,-166
0,345821,2461,693,-609,-1493,-315,-41,158,-66,-166
0,345826,2461,693,-609,-1493,-315,-41,158,-66,-166
0,345831,2461,693,-609,-1493,-315,-41,158,-66,-166
0,345836,2461,693,-609,-1493,-315,-41,158,-66,-166
0,345842,2458,692,-607,-1488,-311,-42,156,-68,-162
0,345846,2458,692,-607,-1488,-311,-42,156,-68,-162
0,345852,2458,692,-607,-1488,-311,-42,156,-68,-162
0,345858,2458,692,-607,-1488,-311,-42,156,-68,-162
0,345862,2458,692,-607,-1488,-312,-43,156,-68,-162
0,345868,2458,692,-607,-1488,-312,-43,156,-68,-162
0,345873,2458,692,-607,-1488,-312,-43,156,-68,-162
0,345878,2458,692,-607,-1488,-312,-43,156,-68,-162
0,345883,2459,694,-604,-1491,-314,-54,156,-68,-162
0,345888,2459,694,-604,-1491,-314,-54,156,-68,-162
0,345894,2459,694,-604,-1491,-314,-54,156,-68,-162
0,345900,2458,693,-607,-1492,-309,-39,156,-68,-162
0,345906,2458,693,-607,-1492,-309,-39,156,-68,-162
0,345911,2458,693,-607,-1492,-309,-39,156,-68,-162
0,345917,2458,693,-607,-1492,-309,-39,156,-68,-162
0,345922,2459,694,-612,-1494,-309,-46,156,-68,-162
0,345927,2459,694,-612,-1494,-309,-46,156,-68,-162
0,345932,2459,694,-612,-1494,-309,-46,156,-68,-162
0,345938,2459,694,-612,-1494,-309,-46,156,-68,-162
0,345944,2461,688,-608,-1485,-311,-45,156,-68,-162
0,345950,2461,688,-608,-1485,-311,-45,156,-68,-162
0,345955,2461,688,-608,-1485,-311,-45,156,-68,-162
0,345961,2456,691,-608,-1483,-310,-46,156,-68,-162
0,345966,2456,691,-608,-1483,-310,-46,156,-68,-162
0,345972,2456,691,-608,-1483,-310,-46,156,-68,-162
0,345978,2456,691,-608,-1483,-310,-46,156,-68,-162
0,345984,2458,693,-609,-1496,-317,-51,159,-73,-163
0,345989,2458,693,-609,-1496,-317,-51,159,-73,-163
0,345994,2458,693,-609,-1496,-317,-51,159,-73,-163
0,346000,2458,693,-609,-1496,-317,-51,159,-73,-163
0,346005,2462,692,-610,-1490,-318,-40,159,-73,-163
0,346010,2462,692,-610,-1490,-318,-40,159,-73,-163
0,346015,2462,692,-610,-1490,-318,-40,159,-73,-163
0,346021,2460,692,-610,-1495,-315,-43,159,-73,-163
0,346027,2460,692,-610,-1495,-315,-43,159,-73,-163
0,346033,2460,692,-610,-1495,-315,-43,159,-73,-163
0,346038,2460,692,-610,-1495,-315,-43,159,-73,-163
0,346043,2461,690,-609,-1483,-314,-38,159,-73,-163
0,346048,2461,690,-609,-1483,-314,-38,159,-73,-163
0,346054,2461,690,-609,-1483,-314,-38,159,-73,-163
0,346059,2461,690,-609,-1483,-314,-38,159,-73,-163
0,346064,2461,695,-607,-1483,-312,-45,159,-73,-163
0,346071,2461,695,-607,-1483,-312,-45,159,-73,-163
0,346076,2461,695,-607,-1483,-312,-45,159,-73,-163
0,346082,2457,693,-610,-1486,-311,-46,159,-73,-163
0,346088,2457,693,-610,-1486,-311,-46,159,-73,-163
0,346093,2457,693,-610,-1486,-311,-46,159,-73,-163
0,346098,2457,693,-610,-1486,-311,-46,159,-73,-163
0,346103,2459,693,-609,-1493,-310,-43,155,-69,-153
0,346109,2459,693,-609,-1493,-310,-43,155,-69,-153
0,346115,2459,693,-609,-1493,-310,-43,155,-69,-153
0,346121,2458,694,-612,-1499,-310,-39,155,-69,-153
0,346126,2458,694,-612,-1499,-310,-39,155,-69,-153
0,346132,2458,694,-612,-1499,-310,-39,155,-69,-153
0,346137,2458,694,-612,-1499,-310,-39,155,-69,-153
0,346142,2462,693,-606,-1488,-312,-39,155,-69,-153
0,346148,2462,693,-606,-1488,-312,-39,155,-69,-153
0,346153,2462,693,-606,-1488,-312,-39,155,-69,-153
0,346159,2462,693,-606,-1488,-312,-39,155,-69,-153
0,346165,2463,693,-608,-1488,-306,-42,155,-69,-153
0,346170,2463,693,-608,-1488,-306,-42,155,-69,-153
0,346176,2463,693,-608,-1488,-306,-42,155,-69,-153
0,346181,2460,690,-611,-1492,-311,-51,155,-69,-153
0,346186,2460,690,-611,-1492,-311,-51,155,-69,-153
0,346192,2460,690,-611,-1492,-311,-51,155,-69,-153
0,346198,2460,690,-611,-1492,-311,-51,155,-69,-153
0,346204,2457,692,-612,-1489,-311,-44,155,-69,-153
0,346210,2457,692,-612,-1489,-311,-44,155,-69,-153
0,346215,2457,692,-612,-1489,-311,-44,155,-69,-153
0,346220,2464,693,-606,-1490,-311,-47,160,-70,-162
0,346226,2464,693,-606,-1490,-311,-47,160,-70,-162
0,346231,2464,693,-606,-1490,-311,-47,160,-70,-162
0,346237,2464,693,-606,-1490,-311,-47,160,-70,-162
0,346242,2459,692,-615,-1489,-320,-44,160,-70,-162
0,346248,2459,692,-615,-1489,-320,-44,160,-70,-162
0,346253,2459,692,-615,-1489,-320,-44,160,-70,-162
0,346258,2459,692,-615,-1489,-320,-44,160,-70,-162
0,346263,2458,692,-610,-1488,-314,-38,160,-70,-162
0,346269,2458,692,-610,-1488,-314,-38,160,-70,-162
0,346275,2458,692,-610,-1488,-314,-38,160,-70,-162
0,346280,2460,689,-609,-1494,-314,-40,160,-70,-162
0,346286,2460,689,-609,-1494,-314,-40,160,-70,-162
0,346292,2460,689,-609,-1494,-314,-40,160,-70,-162
0,346297,2460,689,-609,-1494,-314,-40,160,-70,-162
0,346303,2461,694,-606,-1493,-312,-45,160,-70,-162
0,346308,2461,694,-606,-1493,-312,-45,160,-70,-162
0,346315,2461,694,-606,-1493,-312,-45,160,-70,-162
0,346320,2459,694,-611,-1487,-312,-40,160,-70,-162
0,346328,2459,694,-611,-1487,-312,-40,160,-70,-162
0,346334,2459,694,-611,-1487,-312,-40,160,-70,-162
0,346339,2459,694,-611,-1487,-312,-40,160,-70,-162
0,346346,2461,694,-609,-1493,-315,-46,146,-68,-164
0,346352,2461,694,-609,-1493,-315,-46,146,-68,-164
0,346358,2461,694,-609,-1493,-315,-46,146,-68,-164
0,346364,2462,691,-607,-1492,-311,-50,146,-68,-164
0,346371,2462,691,-607,-1492,-311,-50,146,-68,-164
0,346377,2462,691,-607,-1492,-311,-50,146,-68,-164
0,346383,2462,694,-608,-1489,-316,-43,146,-68,-164
0,346388,2462,694,-608,-1489,-316,-43,146,-68,-164
0,346393,2462,694,-608,-1489,-316,-43,146,-68,-164
0,346399,2462,694,-608,-1489,-316,-43,146,-68,-164
0,346405,2459,694,-609,-1487,-315,-45,146,-68,-164
0,346412,2459,694,-609,-1487,-315,-45,146,-68,-164
0,346418,2459,694,-609,-1487,-315,-45,146,-68,-164
0,346424,2462,693,-613,-1497,-313,-49,146,-68,-164
0,346430,2462,693,-613,-1497,-313,-49,146,-68,-164
0,346437,2462,693,-613,-1497,-313,-49,146,-68,-164
0,346443,2459,694,-611,-1489,-309,-43,146,-68,-164
0,346449,2459,694,-611,-1489,-309,-43,146,-68,-164
0,346457,2459,694,-611,-1489,-309,-43,146,-68,-164
0,346463,2459,695,-619,-1482,-314,-43,146,-68,-164
0,346470,2459,695,-619,-1482,-314,-43,146,-68,-164
0,346477,2459,695,-619,-1482,-314,-43,146,-68,-164
0,346484,2457,693,-609,-1489,-316,-37,161,-69,-169
0,346490,2457,693,-609,-1489,-316,-37,161,-69,-169
0,346497,2457,693,-609,-1489,-316,-37,161,-69,-169
0,346503,2463,692,-612,-1494,-317,-43,161,-69,-169
0,346508,2463,692,-612,-1494,-317,-43,161,-69,-169
0,346514,2463,692,-612,-1494,-317,-43,161,-69,-169
0,346520,2460,693,-608,-1490,-312,-40,161,-69,-169
0,346525,2460,693,-608,-1490,-312,-40,161,-69,-169
0,346531,2460,693,-608,-1490,-312,-40,161,-69,-169
0,346535,2460,693,-608,-1490,-312,-40,161,-69,-169
0,346542,2458,695,-611,-1486,-318,-44,161,-69,-169
0,346548,2458,695,-611,-1486,-318,-44,161,-69,-169
0,346554,2458,695,-611,-1486,-318,-44,161,-69,-169
0,346560,2458,695,-611,-1486,-318,-44,161,-69,-169
0,346566,2460,692,-608,-1484,-316,-47,161,-69,-169
0,346572,2460,692,-608,-1484,-316,-47,161,-69,-169
0,346577,2460,692,-608,-1484,-316,-47,161,-69,-169
0,346584,2462,693,-609,-1483,-316,-43,161,-69,-169
0,346591,2462,693,-609,-1483,-316,-43,161,-69,-169
0,346596,2462,693,-609,-1483,-316,-43,161,-69,-169
0,346602,2460,694,-608,-1494,-315,-45,155,-67,-157
0,346609,2460,694,-608,-1494,-315,-45,155,-67,-157
0,346616,2460,694,-608,-1494,-315,-45,155,-67,-157
0,346624,2459,692,-606,-1492,-316,-46,155,-67,-157
0,346631,2459,692,-606,-1492,-316,-46,155,-67,-157
0,346636,2459,692,-606,-1492,-316,-46,155,-67,-157
0,346642,2461,693,-609,-1489,-311,-47,155,-67,-157
0,346647,2461,693,-609,-1489,-311,-47,155,-67,-157
0,346653,2461,693,-609,-1489,-311,-47,155,-67,-157
0,346658,2461,693,-609,-1489,-311,-47,155,-67,-157
0,346663,2459,695,-610,-1484,-317,-50,155,-67,-157
0,346670,2459,695,-610,-1484,-317,-50,155,-67,-157
0,346675,2459,695,-610,-1484,-317,-50,155,-67,-157
0,346681,2460,691,-610,-1484,-313,-47,155,-67,-157
0,346685,2460,691,-610,-1484,-313,-47,155,-67,-157
0,346691,2460,691,-610,-1484,-313,-47,155,-67,-157
0,346697,2460,691,-610,-1484,-313,-47,155,-67,-157
0,346702,2463,695,-610,-1479,-317,-43,155,-67,-157
0,346707,2463,695,-610,-1479,-317,-43,155,-67,-157
0,346713,2463,695,-610,-1479,-317,-43,155,-67,-157
0,346719,2463,695,-610,-1479,-317,-43,155,-67,-157
0,346724,2459,694,-612,-1483,-314,-45,163,-69,-163
0,346730,2459,694,-612,-1483,-314,-45,163,-69,-163
0,346735,2459,694,-612,-1483,-314,-45,163,-69,-163
0,346741,2459,694,-603,-1486,-316,-44,163,-69,-163
0,346747,2459,694,-603,-1486,-316,-44,163,-69,-163
0,346753,2459,694,-603,-1486,-316,-44,163,-69,-163
0,346759,2459,694,-603,-1486,-316,-44,163,-69,-163
0,346764,2459,693,-611,-1490,-314,-43,163,-69,-163
0,346770,2459,693,-611,-1490,-314,-43,163,-69,-163
0,346775,2459,693,-611,-1490,-314,-43,163,-69,-163
0,346781,2461,693,-612,-1494,-314,-43,163,-69,-163
0,346787,2461,693,-612,-1494,-314,-43,163,-69,-163
0,346792,2461,693,-612,-1494,-314,-43,163,-69,-163
0,346798,2461,693,-612,-1494,-314,-43,163,-69,-163
0,346804,2461,693,-613,-1492,-308,-46,163,-69,-163
0,346810,2461,693,-613,-1492,-308,-46,163,-69,-163
0,346815,2461,693,-613,-1492,-308,-46,163,-69,-163
0,346821,2458,692,-610,-1485,-313,-37,163,-69,-163
0,346826,2458,692,-610,-1485,-313,-37,163,-69,-163
0,346831,2458,692,-610,-1485,-313,-37,163,-69,-163
0,346838,2458,692,-610,-1485,-313,-37,163,-69,-163
0,346843,2461,694,-609,-1488,-313,-33,160,-66,-158
0,346848,2461,694,-609,-1488,-313,-33,160,-66,-158
0,346854,2461,694,-609,-1488,-313,-33,160,-66,-158
0,346859,2461,694,-609,-1488,-313,-33,160,-66,-158
0,346864,2459,694,-607,-1483,-309,-38,160,-66,-158
0,346870,2459,694,-607,-1483,-309,-38,160,-66,-158
0,346875,2459,694,-607,-1483,-309,-38,160,-66,-158
0,346881,2461,693,-606,-1484,-310,-40,160,-66,-158
0,346886,2461,693,-606,-1484,-310,-40,160,-66,-158
0,346891,2461,693,-606,-1484,-310,-40,160,-66,-158
0,346896,2461,693,-606,-1484,-310,-40,160,-66,-158
0,346902,2460,693,-611,-1491,-312,-44,160,-66,-158
0,346907,2460,693,-611,-1491,-312,-44,160,-66,-158
0,346913,2460,693,-611,-1491,-312,-44,160,-66,-158
0,346919,2460,693,-611,-1491,-312,-44,160,-66,-158
0,346925,2460,695,-607,-1493,-321,-38,160,-66,-158
0,346931,2460,695,-607,-1493,-321,-38,160,-66,-158
0,346936,2460,695,-607,-1493,-321,-38,160,-66,-158
0,346942,2460,691,-608,-1494,-312,-44,160,-66,-158
0,346946,2460,691,-608,-1494,-312,-44,160,-66,-158
0,346952,2460,691,-608,-1494,-312,-44,160,-66,-158
0,346957,2460,691,-608,-1494,-312,-44,160,-66,-158
0,346962,2464,694,-606,-1495,-317,-43,159,-67,-165
0,346969,2464,694,-606,-1495,-317,-43,159,-67,-165
0,346975,2464,694,-606,-1495,-317,-43,159,-67,-165
0,346980,2464,694,-606,-1495,-317,-43,159,-67,-165
0,346986,2460,692,-611,-1489,-316,-52,159,-67,-165
0,346992,2460,692,-611,-1489,-316,-52,159,-67,-165
0,346997,2460,692,-611,-1489,-316,-52,159,-67,-165
0,347003,2458,693,-606,-1488,-308,-44,159,-67,-165
0,347009,2458,693,-606,-1488,-308,-44,159,-67,-165
0,347014,2458,693,-606,-1488,-308,-44,159,-67,-165
0,347020,2458,693,-606,-1488,-308,-44,159,-67,-165
0,347025,2461,697,-608,-1483,-309,-48,159,-67,-165
0,347030,2461,697,-608,-1483,-309,-48,159,-67,-165
0,347036,2461,697,-608,-1483,-309,-48,159,-67,-165
0,347042,2460,694,-608,-1490,-312,-51,159,-67,-165
0,347047,2460,694,-608,-1490,-312,-51,159,-67,-165
0,347053,2460,694,-608,-1490,-312,-51,159,-67,-165
0,347059,2460,694,-608,-1490,-312,-51,159,-67,-165
0,347064,2462,693,-608,-1489,-311,-53,159,-67,-165
0,347069,2462,693,-608,-1489,-311,-53,159,-67,-165
0,347075,2462,693,-608,-1489,-311,-53,159,-67,-165
0,347081,2460,691,-610,-1490,-315,-46,159,-67,-165
0,347088,2460,691,-610,-1490,-315,-46,159,-67,-165
0,347094,2460,691,-610,-1490,-315,-46,159,-67,-165
0,347099,2460,691,-610,-1490,-315,-46,159,-67,-165
0,347105,2461,694,-608,-1489,-313,-47,161,-77,-161
0,347111,2461,694,-608,-1489,-313,-47,161,-77,-161
0,347117,2461,694,-608,-1489,-313,-47,161,-77,-161
0,347123,2459,691,-607,-1489,-317,-43,161,-77,-161
0,347129,2459,691,-607,-1489,-317,-43,161,-77,-161
0,347136,2459,691,-607,-1489,-317,-43,161,-77,-161
0,347142,2458,692,-606,-1488,-315,-48,161,-77,-161
0,347147,2458,692,-606,-1488,-315,-48,161,-77,-161
0,347155,2458,692,-606,-1488,-315,-48,161,-77,-161
0,347161,2463,692,-612,-1485,-313,-48,161,-77,-161
0,347168,2463,692,-612,-1485,-313,-48,161,-77,-161
0,347174,2463,692,-612,-1485,-313,-48,161,-77,-161
0,347182,2461,692,-605,-1482,-318,-52,161,-77,-161
0,347188,2461,692,-605,-1482,-318,-52,161,-77,-161
0,347194,2461,692,-605,-1482,-318,-52,161,-77,-161
0,347200,2461,692,-605,-1482,-318,-52,161,-77,-161
0,347205,2459,692,-604,-1492,-318,-44,161,-77,-161
0,347211,2459,692,-604,-1492,-318,-44,161,-77,-161
0,347216,2459,692,-604,-1492,-318,-44,161,-77,-161
0,347222,2457,691,-606,-1480,-315,-43,163,-71,-159
0,347228,2457,691,-606,-1480,-315,-43,163,-71,-159
0,347233,2457,691,-606,-1480,-315,-43,163,-71,-159
0,347238,2457,691,-606,-1480,-315,-43,163,-71,-159
0,347244,2461,691,-608,-1486,-307,-48,163,-71,-159
0,347250,2461,691,-608,-1486,-307,-48,163,-71,-159
0,347258,2461,691,-608,-1486,-307,-48,163,-71,-159
0,347265,2460,694,-610,-1491,-311,-47,163,-71,-159
0,347271,2460,694,-610,-1491,-311,-47,163,-71,-159
0,347276,2460,694,-610,-1491,-311,-47,163,-71,-159
0,347281,2461,693,-610,-1489,-307,-39,163,-71,-159
0,347287,2461,693,-610,-1489,-307,-39,163,-71,-159
0,347293,2461,693,-610,-1489,-307,-39,163,-71,-159
0,347299,2461,693,-610,-1489,-307,-39,163,-71,-159
0,347304,2458,694,-607,-1487,-304,-46,163,-71,-159
0,347310,2458,694,-607,-1487,-304,-46,163,-71,-159
0,347316,2458,694,-607,-1487,-304,-46,163,-71,-159
0,347321,2461,693,-608,-1486,-310,-45,163,-71,-159
0,347327,2461,693,-608,-1486,-310,-45,163,-71,-159
0,347333,2461,693,-608,-1486,-310,-45,163,-71,-159
0,347339,2461,693,-608,-1486,-310,-45,163,-71,-159
0,347345,2462,693,-602,-1492,-311,-46,161,-71,-155
0,347353,2462,693,-602,-1492,-311,-46,161,-71,-155
0,347359,2462,693,-602,-1492,-311,-46,161,-71,-155
0,347364,2460,691,-608,-1485,-304,-48,161,-71,-155
0,347370,2460,691,-608,-1485,-304,-48,161,-71,-155
0,347376,2460,691,-608,-1485,-304,-48,161,-71,-155
0,347382,2462,691,-609,-1489,-311,-49,161,-71,-155
0,347388,2462,691,-609,-1489,-311,-49,161,-71,-155
0,347396,2462,691,-609,-1489,-311,-49,161,-71,-155
0,347402,2462,691,-609,-1489,-311,-49,161,-71,-155
0,347409,2462,691,-609,-1489,-311,-49,161,-71,-155
0,347416,2462,691,-609,-1489,-311,-49,161,-71,-155
0,347422,2462,692,-611,-1485,-314,-46,161,-71,-155
0,347428,2462,692,-611,-1485,-314,-46,161,-71,-155
0,347435,2462,692,-611,-1485,-314,-46,161,-71,-155
0,347441,2460,691,-605,-1487,-312,-46,161,-71,-155
0,347447,2460,691,-605,-1487,-312,-46,161,-71,-155
0,347453,2460,691,-605,-1487,-312,-46,161,-71,-155
0,347459,2460,691,-605,-1487,-312,-46,161,-71,-155
0,347465,2461,695,-606,-1487,-314,-49,158,-72,-158
0,347470,2461,695,-606,-1487,-314,-49,158,-72,-158
0,347475,2461,695,-606,-1487,-314,-49,158,-72,-158
0,347481,2458,692,-612,-1489,-309,-42,158,-72,-158
0,347487,2458,692,-612,-1489,-309,-42,158,-72,-158
0,347491,2458,692,-612,-1489,-309,-42,158,-72,-158
0,347497,2458,692,-612,-1489,-309,-42,158,-72,-158
0,347502,2460,694,-608,-1484,-315,-42,158,-72,-158
0,347508,2460,694,-608,-1484,-315,-42,158,-72,-158
0,347513,2460,694,-608,-1484,-315,-42,158,-72,-158
0,347520,2460,694,-608,-1484,-315,-42,158,-72,-158
0,347526,2459,690,-610,-1487,-317,-45,158,-72,-158
0,347532,2459,690,-610,-1487,-317,-45,158,-72,-158
0,347537,2459,690,-610,-1487,-317,-45,158,-72,-158
0,347541,2462,692,-612,-1485,-310,-44,158,-72,-158
0,347547,2462,692,-612,-1485,-310,-44,158,-72,-158
0,347552,2462,692,-612,-1485,-310,-44,158,-72,-158
0,347558,2462,692,-612,-1485,-310,-44,158,-72,-158
0,347564,2463,692,-606,-1480,-316,-40,158,-72,-158
0,347570,2463,692,-606,-1480,-316,-40,158,-72,-158
0,347576,2463,692,-606,-1480,-316,-40,158,-72,-158
0,347581,2459,693,-607,-1483,-309,-50,158,-74,-162
0,347587,2459,693,-607,-1483,-309,-50,158,-74,-162
0,347592,2459,693,-607,-1483,-309,-50,158,-74,-162
0,347597,2459,693,-607,-1483,-309,-50,158,-74,-162
0,347602,2461,693,-607,-1497,-307,-50,158,-74,-162
0,347609,2461,693,-607,-1497,-307,-50,158,-74,-162
0,347615,2461,693,-607,-1497,-307,-50,158,-74,-162
0,347620,2461,693,-607,-1497,-307,-50,158,-74,-162
0,347626,2460,690,-607,-1491,-316,-41,158,-74,-162
0,347632,2460,690,-607,-1491,-316,-41,158,-74,-162
0,347638,2460,690,-607,-1491,-316,-41,158,-74,-162
0,347644,2461,689,-607,-1489,-315,-42,158,-74,-162
0,347650,2461,689,-607,-1489,-315,-42,158,-74,-162
0,347655,2461,689,-607,-1489,-315,-42,158,-74,-162
0,347661,2461,692,-611,-1488,-315,-40,158,-74,-162
0,347667,2461,692,-611,-1488,-315,-40,158,-74,-162
0,347673,2461,692,-611,-1488,-315,-40,158,-74,-162
0,347679,2461,692,-611,-1488,-315,-40,158,-74,-162
0,347684,2460,692,-613,-1491,-313,-41,158,-74,-162
0,347688,2460,692,-613,-1491,-313,-41,158,-74,-162
0,347696,2460,692,-613,-1491,-313,-41,158,-74,-162
0,347701,2460,692,-613,-1491,-313,-41,158,-74,-162
0,347706,2460,692,-608,-1488,-318,-47,158,-74,-162
0,347712,2460,692,-608,-1488,-318,-47,158,-74,-162
0,347717,2460,692,-608,-1488,-318,-47,158,-74,-162
0,347722,2461,694,-608,-1492,-315,-42,162,-72,-164
0,347729,2461,694,-608,-1492,-315,-42,162,-72,-164
0,347735,2461,694,-608,-1492,-315,-42,162,-72,-164
0,347740,2461,694,-608,-1492,-315,-42,162,-72,-164
0,347746,2461,693,-609,-1489,-318,-49,162,-72,-164
0,347751,2461,693,-609,-1489,-318,-49,162,-72,-164
0,347757,2461,693,-609,-1489,-318,-49,162,-72,-164
0,347763,2456,693,-610,-1490,-314,-40,162,-72,-164
0,347769,2456,693,-610,-1490,-314,-40,162,-72,-164
0,347776,2456,693,-610,-1490,-314,-40,162,-72,-164
0,347782,2458,691,-612,-1489,-315,-39,162,-72,-164
0,347789,2458,691,-612,-1489,-315,-39,162,-72,-164
0,347794,2458,691,-612,-1489,-315,-39,162,-72,-164
0,347800,2458,691,-612,-1489,-315,-39,162,-72,-164
0,347805,2460,691,-610,-1489,-316,-45,162,-72,-164
0,347811,2460,691,-610,-1489,-316,-45,162,-72,-164
0,347816,2460,691,-610,-1489,-316,-45,162,-72,-164
0,347823,2458,695,-611,-1489,-311,-46,162,-72,-164
0,347828,2458,695,-611,-1489,-311,-46,162,-72,-164
0,347835,2458,695,-611,-1489,-311,-46,162,-72,-164
0,347840,2458,695,-611,-1489,-311,-46,162,-72,-164
0,347846,2458,693,-606,-1487,-318,-39,163,-71,-153
0,347851,2458,693,-606,-1487,-318,-39,163,-71,-153
0,347856,2458,693,-606,-1487,-318,-39,163,-71,-153
0,347863,2460,691,-605,-1487,-314,-37,163,-71,-153
0,347869,2460,691,-605,-1487,-314,-37,163,-71,-153
0,347874,2460,691,-605,-1487,-314,-37,163,-71,-153
0,347880,2460,691,-605,-1487,-314,-37,163,-71,-153
0,347885,2459,693,-610,-1482,-313,-45,163,-71,-153
0,347890,2459,693,-610,-1482,-313,-45,163,-71,-153
0,347896,2459,693,-610,-1482,-313,-45,163,-71,-153
0,347904,2457,692,-607,-1488,-314,-45,163,-71,-153
0,347909,2457,692,-607,-1488,-314,-45,163,-71,-153
0,347915,2457,692,-607,-1488,-314,-45,163,-71,-153
0,347920,2457,692,-607,-1488,-314,-45,163,-71,-153
0,347925,2458,692,-612,-1491,-311,-40,163,-71,-153
0,347930,2458,692,-612,-1491,-311,-40,163,-71,-153
0,347936,2458,692,-612,-1491,-311,-40,163,-71,-153
0,347942,2462,694,-611,-1483,-314,-47,163,-71,-153
0,347948,2462,694,-611,-1483,-314,-47,163,-71,-153
0,347954,2462,694,-611,-1483,-314,-47,163,-71,-153
0,347961,2462,694,-611,-1483,-314,-47,163,-71,-153
0,347966,2460,692,-607,-1490,-311,-41,155,-67,-159
0,347972,2460,692,-607,-1490,-311,-41,155,-67,-159
0,347978,2460,692,-607,-1490,-311,-41,155,-67,-159
0,347984,2459,691,-608,-1489,-316,-49,155,-67,-159
0,347990,2459,691,-608,-1489,-316,-49,155,-67,-159
0,347995,2459,691,-608,-1489,-316,-49,155,-67,-159
0,348001,2459,691,-608,-1489,-316,-49,155,-67,-159
0,348007,2462,692,-608,-1486,-310,-46,155,-67,-159
0,348012,2462,692,-608,-1486,-310,-46,155,-67,-159
0,348018,2462,692,-608,-1486,-310,-46,155,-67,-159
0,348024,2461,691,-614,-1489,-317,-53,155,-67,-159
0,348030,2461,691,-614,-1489,-317,-53,155,-67,-159
0,348036,2461,691,-614,-1489,-317,-53,155,-67,-159
0,348042,2462,693,-605,-1489,-317,-42,155,-67,-159
0,348047,2462,693,-605,-1489,-317,-42,155,-67,-159
0,348053,2462,693,-605,-1489,-317,-42,155,-67,-159
0,348059,2462,693,-605,-1489,-317,-42,155,-67,-159
0,348064,2460,691,-609,-1487,-307,-34,155,-67,-159
0,348070,2460,691,-609,-1487,-307,-34,155,-67,-159
0,348076,2460,691,-609,-1487,-307,-34,155,-67,-159
0,348082,2461,694,-604,-1488,-304,-41,160,-70,-160
0,348088,2461,694,-604,-1488,-304,-41,160,-70,-160
0,348095,2461,694,-604,-1488,-304,-41,160,-70,-160
0,348100,2461,694,-604,-1488,-304,-41,160,-70,-160
0,348106,2458,693,-603,-1489,-315,-48,160,-70,-160
0,348111,2458,693,-603,-1489,-315,-48,160,-70,-160
0,348116,2458,693,-603,-1489,-315,-48,160,-70,-160
0,348122,2457,697,-611,-1491,-313,-39,160,-70,-160
0,348128,2457,697,-611,-1491,-313,-39,160,-70,-160
0,348134,2457,697,-611,-1491,-313,-39,160,-70,-160
0,348139,2457,697,-611,-1491,-313,-39,160,-70,-160
0,348144,2457,697,-611,-1491,-313,-39,160,-70,-160
0,348150,2457,697,-611,-1491,-313,-39,160,-70,-160
0,348155,2457,697,-611,-1491,-313,-39,160,-70,-160
0,348161,2459,690,-605,-1482,-313,-42,160,-70,-160
0,348167,2459,690,-605,-1482,-313,-42,160,-70,-160
0,348172,2459,690,-605,-1482,-313,-42,160,-70,-160
0,348178,2459,690,-605,-1482,-313,-42,160,-70,-160
0,348184,2457,691,-607,-1488,-308,-44,160,-70,-160
0,348189,2457,691,-607,-1488,-308,-44,160,-70,-160
0,348195,2457,691,-607,-1488,-308,-44,160,-70,-160
0,348200,2457,691,-607,-1488,-308,-44,160,-70,-160
0,348207,2458,693,-609,-1494,-312,-43,160,-68,-158
0,348213,2458,693,-609,-1494,-312,-43,160,-68,-158
0,348218,2458,693,-609,-1494,-312,-43,160,-68,-158
0,348222,2459,692,-608,-1486,-306,-43,160,-68,-158
0,348228,2459,692,-608,-1486,-306,-43,160,-68,-158
0,348233,2459,692,-608,-1486,-306,-43,160,-68,-158
0,348238,2459,692,-608,-1486,-306,-43,160,-68,-158
0,348244,2458,689,-608,-1488,-314,-43,160,-68,-158
0,348251,2458,689,-608,-1488,-314,-43,160,-68,-158
0,348256,2458,689,-608,-1488,-314,-43,160,-68,-158
0,348262,2461,695,-605,-1488,-319,-45,160,-68,-158
0,348267,2461,695,-605,-1488,-319,-45,160,-68,-158
0,348273,2461,695,-605,-1488,-319,-45,160,-68,-158
0,348279,2461,695,-605,-1488,-319,-45,160,-68,-158
0,348284,2457,692,-609,-1491,-318,-45,160,-68,-158
0,348291,2457,692,-609,-1491,-318,-45,160,-68,-158
0,348296,2457,692,-609,-1491,-318,-45,160,-68,-158
0,348301,2459,694,-606,-1488,-311,-36,160,-68,-158
0,348307,2459,694,-606,-1488,-311,-36,160,-68,-158
0,348313,2459,694,-606,-1488,-311,-36,160,-68,-158
0,348318,2459,694,-606,-1488,-311,-36,160,-68,-158
0,348323,2460,695,-610,-1492,-313,-32,160,-68,-158
0,348329,2460,695,-610,-1492,-313,-32,160,-68,-158
0,348335,2460,695,-610,-1492,-313,-32,160,-68,-158
0,348340,2460,695,-610,-1492,-313,-32,160,-68,-158
0,348345,2461,693,-610,-1480,-315,-39,160,-74,-154
0,348351,2461,693,-610,-1480,-315,-39,160,-74,-154
0,348356,2461,693,-610,-1480,-315,-39,160,-74,-154
0,348361,2459,690,-608,-1483,-314,-45,160,-74,-154
0,348367,2459,690,-608,-1483,-314,-45,160,-74,-154
0,348372,2459,690,-608,-1483,-314,-45,160,-74,-154
0,348379,2459,690,-608,-1483,-314,-45,160,-74,-154
0,348384,2463,692,-609,-1493,-313,-44,160,-74,-154
0,348389,2463,692,-609,-1493,-313,-44,160,-74,-154
0,348394,2463,692,-609,-1493,-313,-44,160,-74,-154
0,348399,2463,692,-609,-1493,-313,-44,160,-74,-154
0,348404,2461,691,-605,-1489,-309,-41,160,-74,-154
0,348409,2461,691,-605,-1489,-309,-41,160,-74,-154
0,348416,2461,691,-605,-1489,-309,-41,160,-74,-154
0,348421,2461,691,-605,-1489,-309,-41,160,-74,-154
0,348426,2461,691,-605,-1489,-309,-41,160,-74,-154
0,348432,2461,691,-605,-1489,-309,-41,160,-74,-154
0,348437,2461,691,-605,-1489,-309,-41,160,-74,-154
0,348443,2456,693,-604,-1488,-315,-45,160,-74,-154
0,348448,2456,693,-604,-1488,-315,-45,160,-74,-154
0,348454,2456,693,-604,-1488,-315,-45,160,-74,-154
0,348459,2456,693,-604,-1488,-315,-45,160,-74,-154
0,348465,2458,692,-606,-1484,-318,-46,155,-73,-167
0,348470,2458,692,-606,-1484,-318,-46,155,-73,-167
0,348475,2458,692,-606,-1484,-318,-46,155,-73,-167
0,348480,2458,692,-606,-1484,-318,-46,155,-73,-167
0,348485,2458,690,-604,-1492,-318,-49,155,-73,-167
0,348491,2458,690,-604,-1492,-318,-49,155,-73,-167
0,348497,2458,690,-604,-1492,-318,-49,155,-73,-167
0,348503,2462,690,-606,-1492,-318,-45,155,-73,-167
0,348509,2462,690,-606,-1492,-318,-45,155,-73,-167
0,348514,2462,690,-606,-1492,-318,-45,155,-73,-167
0,348519,2462,690,-606,-1492,-318,-45,155,-73,-167
0,348524,2461,695,-607,-1492,-314,-40,155,-73,-167
0,348529,2461,695,-607,-1492,-314,-40,155,-73,-167
0,348535,2461,695,-607,-1492,-314,-40,155,-73,-167
0,348540,2461,695,-607,-1492,-314,-40,155,-73,-167
0,348546,2461,692,-608,-1490,-314,-45,155,-73,-167
0,348552,2461,692,-608,-1490,-314,-45,155,-73,-167
0,348557,2461,692,-608,-1490,-314,-45,155,-73,-167
0,348562,2460,691,-608,-1491,-314,-46,155,-73,-167
0,348569,2460,691,-608,-1491,-314,-46,155,-73,-167
0,348575,2460,691,-608,-1491,-314,-46,155,-73,-167
0,348581,2460,694,-607,-1494,-314,-42,155,-73,-167
0,348587,2460,694,-607,-1494,-314,-42,158,-74,-158
0,348592,2460,694,-607,-1494,-314,-42,158,-74,-158
0,348597,2460,694,-607,-1494,-314,-42,158,-74,-158
0,348603,2460,691,-608,-1495,-314,-48,158,-74,-158
0,348608,2460,691,-608,-1495,-314,-48,158,-74,-158
0,348614,2460,691,-608,-1495,-314,-48,158,-74,-158
0,348619,2460,691,-608,-1495,-314,-48,158,-74,-158
0,348624,2459,692,-613,-1492,-310,-47,158,-74,-158
0,348630,2459,692,-613,-1492,-310,-47,158,-74,-158
0,348636,2459,692,-613,-1492,-310,-47,158,-74,-158
0,348641,2459,693,-610,-1487,-313,-44,158,-74,-158
0,348647,2459,693,-610,-1487,-313,-44,158,-74,-158
0,348652,2459,693,-610,-1487,-313,-44,158,-74,-158
0,348658,2459,693,-610,-1487,-313,-44,158,-74,-158
0,348663,2457,692,-608,-1496,-315,-41,158,-74,-158
0,348668,2457,692,-608,-1496,-315,-41,158,-74,-158
0,348674,2457,692,-608,-1496,-315,-41,158,-74,-158
0,348680,2457,692,-608,-1496,-315,-41,158,-74,-158
0,348685,2457,692,-608,-1496,-315,-41,158,-74,-158
0,348690,2457,692,-608,-1496,-315,-41,158,-74,-158
0,348696,2457,692,-608,-1496,-315,-41,158,-74,-158
0,348700,2457,692,-608,-1496,-315,-41,158,-74,-158
0,348706,2459,691,-610,-1485,-309,-50,159,-71,-165
0,348712,2459,691,-610,-1485,-309,-50,159,-71,-165
0,348718,2459,691,-610,-1485,-309,-50,159,-71,-165
0,348724,2460,693,-609,-1481,-315,-42,159,-71,-165
0,348730,2460,693,-609,-1481,-315,-42,159,-71,-165
0,348735,2460,693,-609,-1481,-315,-42,159,-71,-165
0,348740,2460,693,-609,-1481,-315,-42,159,-71,-165
0,348746,2461,694,-609,-1490,-313,-44,159,-71,-165
0,348750,2461,694,-609,-1490,-313,-44,159,-71,-165
0,348756,2461,694,-609,-1490,-313,-44,159,-71,-165
0,348762,2460,691,-609,-1494,-312,-45,159,-71,-165
0,348767,2460,691,-609,-1494,-312,-45,159,-71,-165
0,348772,2460,691,-609,-1494,-312,-45,159,-71,-165
0,348777,2460,691,-609,-1494,-312,-45,159,-71,-165
0,348783,2460,691,-614,-1495,-313,-45,159,-71,-165
0,348788,2460,691,-614,-1495,-313,-45,159,-71,-165
0,348793,2460,691,-614,-1495,-313,-45,159,-71,-165
0,348798,2460,691,-614,-1495,-313,-45,159,-71,-165
0,348804,2459,691,-608,-1489,-309,-48,159,-71,-165
0,348810,2459,691,-608,-1489,-309,-48,159,-71,-165
0,348815,2459,691,-608,-1489,-309,-48,159,-71,-165
0,348821,2459,691,-608,-1489,-309,-48,159,-71,-165
0,348825,2460,694,-610,-1489,-314,-46,159,-71,-165
0,348831,2460,694,-610,-1489,-314,-46,159,-71,-165
0,348837,2460,694,-610,-1489,-314,-46,159,-71,-165
0,348843,2461,693,-604,-1485,-315,-47,161,-69,-151
0,348848,2461,693,-604,-1485,-315,-47,161,-69,-151
0,348853,2461,693,-604,-1485,-315,-47,161,-69,-151
0,348858,2461,693,-604,-1485,-315,-47,161,-69,-151
0,348863,2459,695,-609,-1486,-315,-46,161,-69,-151
0,348868,2459,695,-609,-1486,-315,-46,161,-69,-151
0,348873,2459,695,-609,-1486,-315,-46,161,-69,-151
0,348879,2459,695,-609,-1486,-315,-46,161,-69,-151
0,348886,2458,691,-608,-1487,-312,-41,161,-69,-151
0,348891,2458,691,-608,-1487,-312,-41,161,-69,-151
0,348896,2458,691,-608,-1487,-312,-41,161,-69,-151
0,348901,2460,692,-610,-1481,-310,-48,161,-69,-151
0,348906,2460,692,-610,-1481,-310,-48,161,-69,-151
0,348912,2460,692,-610,-1481,-310,-48,161,-69,-151
0,348917,2460,692,-610,-1481,-310,-48,161,-69,-151
0,348923,2458,691,-609,-1485,-312,-40,161,-69,-151
0,348930,2458,691,-609,-1485,-312,-40,161,-69,-151
0,348935,2458,691,-609,-1485,-312,-40,161,-69,-151
0,348941,2458,691,-609,-1485,-312,-40,161,-69,-151
0,348946,2458,693,-612,-1491,-314,-43,161,-69,-151
0,348951,2458,693,-612,-1491,-314,-43,161,-69,-151
0,348956,2458,693,-612,-1491,-314,-43,161,-69,-151
0,348962,2463,694,-608,-1481,-313,-41,156,-80,-154
0,348967,2463,694,-608,-1481,-313,-41,156,-80,-154
0,348973,2463,694,-608,-1481,-313,-41,156,-80,-154
0,348979,2463,694,-608,-1481,-313,-41,156,-80,-154
0,348985,2461,691,-605,-1486,-315,-40,156,-80,-154
0,348990,2461,691,-605,-1486,-315,-40,156,-80,-154
0,348997,2461,691,-605,-1486,-315,-40,156,-80,-154
0,349003,2460,696,-608,-1493,-315,-46,156,-80,-154
0,349011,2460,696,-608,-1493,-315,-46,156,-80,-154
0,349018,2460,696,-608,-1493,-315,-46,156,-80,-154
0,349024,2459,692,-610,-1486,-322,-48,156,-80,-154
0,349030,2459,692,-610,-1486,-322,-48,156,-80,-154
0,349036,2459,692,-610,-1486,-322,-48,156,-80,-154
0,349042,2460,695,-610,-1492,-313,-43,156,-80,-154
0,349048,2460,695,-610,-1492,-313,-43,156,-80,-154
0,349053,2460,695,-610,-1492,-313,-43,156,-80,-154
0,349060,2460,695,-610,-1492,-313,-43,156,-80,-154
0,349065,2460,692,-612,-1495,-319,-40,156,-80,-154
0,349071,2460,692,-612,-1495,-319,-40,156,-80,-154
0,349076,2460,692,-612,-1495,-319,-40,156,-80,-154
0,349081,2459,692,-606,-1488,-309,-47,156,-80,-154
0,349086,2459,692,-606,-1488,-309,-47,159,-71,-161
0,349092,2459,692,-606,-1488,-309,-47,159,-71,-161
0,349097,2459,692,-606,-1488,-309,-47,159,-71,-161
0,349104,2458,694,-611,-1488,-311,-53,159,-71,-161
0,349109,2458,694,-611,-1488,-311,-53,159,-71,-161
0,349114,2458,694,-611,-1488,-311,-53,159,-71,-161
0,349120,2458,694,-611,-1488,-311,-53,159,-71,-161
0,349125,2460,692,-607,-1493,-309,-45,159,-71,-161
0,349130,2460,692,-607,-1493,-309,-45,159,-71,-161
0,349135,2460,692,-607,-1493,-309,-45,159,-71,-161
0,349140,2460,692,-607,-1493,-309,-45,159,-71,-161
0,349146,2461,694,-611,-1492,-314,-46,159,-71,-161
0,349151,2461,694,-611,-1492,-314,-46,159,-71,-161
0,349157,2461,694,-611,-1492,-314,-46,159,-71,-161
0,349162,2458,691,-610,-1481,-318,-49,159,-71,-161
0,349167,2458,691,-610,-1481,-318,-49,159,-71,-161
0,349172,2458,691,-610,-1481,-318,-49,159,-71,-161
0,349178,2458,691,-610,-1481,-318,-49,159,-71,-161
0,349184,2463,691,-608,-1490,-312,-47,159,-71,-161
0,349190,2463,691,-608,-1490,-312,-47,159,-71,-161
0,349195,2463,691,-608,-1490,-312,-47,159,-71,-161
0,349200,2463,691,-608,-1490,-312,-47,159,-71,-161
0,349206,2460,694,-604,-1487,-313,-47,168,-74,-162
0,349211,2460,694,-604,-1487,-313,-47,168,-74,-162
0,349216,2460,694,-604,-1487,-313,-47,168,-74,-162
0,349222,2460,694,-606,-1491,-311,-48,168,-74,-162
0,349229,2460,694,-606,-1491,-311,-48,168,-74,-162
0,349234,2460,694,-606,-1491,-311,-48,168,-74,-162
0,349240,2460,694,-606,-1491,-311,-48,168,-74,-162
0,349245,2458,693,-610,-1494,-307,-49,168,-74,-162
0,349251,2458,693,-610,-1494,-307,-49,168,-74,-162
0,349255,2458,693,-610,-1494,-307,-49,168,-74,-162
0,349261,2458,693,-606,-1488,-314,-51,168,-74,-162
0,349267,2458,693,-606,-1488,-314,-51,168,-74,-162
0,349273,2458,693,-606,-1488,-314,-51,168,-74,-162
0,349279,2458,693,-606,-1488,-314,-51,168,-74,-162
0,349284,2460,693,-601,-1484,-312,-48,168,-74,-162
0,349290,2460,693,-601,-1484,-312,-48,168,-74,-162
0,349295,2460,693,-601,-1484,-312,-48,168,-74,-162
0,349300,2460,693,-601,-1484,-312,-48,168,-74,-162
0,349305,2461,693,-612,-1489,-312,-50,168,-74,-162
0,349312,2461,693,-612,-1489,-312,-50,168,-74,-162
0,349317,2461,693,-612,-1489,-312,-50,168,-74,-162
0,349322,2461,694,-608,-1491,-314,-50,162,-70,-158
0,349328,2461,694,-608,-1491,-314,-50,162,-70,-158
0,349332,2461,694,-608,-1491,-314,-50,162,-70,-158
0,349338,2461,694,-608,-1491,-314,-50,162,-70,-158
0,349343,2463,694,-602,-1489,-307,-46,162,-70,-158
0,349348,2463,694,-602,-1489,-307,-46,162,-70,-158
0,349355,2463,694,-602,-1489,-307,-46,162,-70,-158
0,349360,2463,694,-602,-1489,-307,-46,162,-70,-158
0,349365,2459,692,-610,-1487,-303,-49,162,-70,-158
0,349371,2459,692,-610,-1487,-303,-49,162,-70,-158
0,349376,2459,692,-610,-1487,-303,-49,162,-70,-158
0,349382,2459,691,-607,-1483,-307,-45,162,-70,-158
0,349387,2459,691,-607,-1483,-307,-45,162,-70,-158
0,349393,2459,691,-607,-1483,-307,-45,162,-70,-158
0,349399,2459,691,-607,-1483,-307,-45,162,-70,-158
0,349404,2460,692,-604,-1479,-313,-41,162,-70,-158
0,349409,2460,692,-604,-1479,-313,-41,162,-70,-158
0,349415,2460,692,-604,-1479,-313,-41,162,-70,-158
0,349421,2460,692,-604,-1479,-313,-41,162,-70,-158
0,349428,2460,691,-608,-1488,-312,-47,162,-70,-158
0,349433,2460,691,-608,-1488,-312,-47,162,-70,-158
0,349438,2460,691,-608,-1488,-312,-47,162,-70,-158
0,349444,2457,689,-613,-1480,-313,-47,162,-70,-158
0,349450,2457,689,-613,-1480,-313,-47,162,-70,-158
0,349455,2457,689,-613,-1480,-313,-47,162,-70,-158
0,349461,2457,689,-613,-1480,-313,-47,162,-70,-158
0,349466,2459,692,-612,-1490,-309,-41,161,-69,-151
0,349470,2459,692,-612,-1490,-309,-41,161,-69,-151
0,349476,2459,692,-612,-1490,-309,-41,161,-69,-151
0,349481,2459,692,-612,-1490,-309,-41,161,-69,-151
0,349487,2459,692,-608,-1486,-305,-43,161,-69,-151
0,349493,2459,692,-608,-1486,-305,-43,161,-69,-151
0,349498,2459,692,-608,-1486,-305,-43,161,-69,-151
0,349503,2461,694,-607,-1491,-309,-43,161,-69,-151
0,349508,2461,694,-607,-1491,-309,-43,161,-69,-151
0,349514,2461,694,-607,-1491,-309,-43,161,-69,-151
0,349519,2461,694,-607,-1491,-309,-43,161,-69,-151
0,349524,2458,691,-609,-1494,-313,-45,161,-69,-151
0,349531,2458,691,-609,-1494,-313,-45,161,-69,-151
0,349537,2458,691,-609,-1494,-313,-45,161,-69,-151
0,349542,2459,690,-609,-1490,-310,-45,161,-69,-151
0,349547,2459,690,-609,-1490,-310,-45,161,-69,-151
0,349552,2459,690,-609,-1490,-310,-45,161,-69,-151
0,349557,2459,690,-609,-1490,-310,-45,161,-69,-151
0,349563,2464,694,-605,-1485,-305,-44,161,-69,-151
0,349570,2464,694,-605,-1485,-305,-44,161,-69,-151
0,349575,2464,694,-605,-1485,-305,-44,161,-69,-151
0,349580,2464,694,-605,-1485,-305,-44,161,-69,-151
0,349585,2460,692,-611,-1484,-316,-42,156,-72,-160
0,349591,2460,692,-611,-1484,-316,-42,156,-72,-160
0,349596,2460,692,-611,-1484,-316,-42,156,-72,-160
0,349601,2461,692,-607,-1491,-310,-41,156,-72,-160
0,349606,2461,692,-607,-1491,-310,-41,156,-72,-160
0,349613,2461,692,-607,-1491,-310,-41,156,-72,-160
0,349618,2461,692,-607,-1491,-310,-41,156,-72,-160
0,349623,2459,693,-607,-1496,-312,-41,156,-72,-160
0,349629,2459,693,-607,-1496,-312,-41,156,-72,-160
0,349634,2459,693,-607,-1496,-312,-41,156,-72,-160
0,349639,2459,693,-607,-1496,-312,-41,156,-72,-160
0,349645,2460,691,-611,-1491,-302,-43,156,-72,-160
0,349650,2460,691,-611,-1491,-302,-43,156,-72,-160
0,349656,2460,691,-611,-1491,-302,-43,156,-72,-160
0,349661,2460,691,-611,-1491,-302,-43,156,-72,-160
0,349666,2462,691,-611,-1487,-314,-43,156,-72,-160
0,349671,2462,691,-611,-1487,-314,-43,156,-72,-160
0,349677,2462,691,-611,-1487,-314,-43,156,-72,-160
0,349683,2461,692,-611,-1482,-305,-45,156,-72,-160
0,349688,2461,692,-611,-1482,-305,-45,156,-72,-160
0,349694,2461,692,-611,-1482,-305,-45,156,-72,-160
0,349700,2461,692,-611,-1482,-305,-45,156,-72,-160
0,349705,2461,691,-604,-1490,-303,-50,151,-71,-155
0,349710,2461,691,-604,-1490,-303,-50,151,-71,-155
0,349716,2461,691,-604,-1490,-303,-50,151,-71,-155
0,349721,2461,691,-604,-1490,-303,-50,151,-71,-155
0,349727,2461,693,-609,-1491,-314,-49,151,-71,-155
0,349732,2461,693,-609,-1491,-314,-49,151,-71,-155
0,349737,2461,693,-609,-1491,-314,-49,151,-71,-155
0,349743,2458,692,-610,-1490,-313,-44,151,-71,-155
0,349749,2458,692,-610,-1490,-313,-44,151,-71,-155
0,349754,2458,692,-610,-1490,-313,-44,151,-71,-155
0,349759,2458,692,-610,-1490,-313,-44,151,-71,-155
0,349764,2461,689,-609,-1487,-312,-46,151,-71,-155
0,349770,2461,689,-609,-1487,-312,-46,151,-71,-155
0,349776,2461,689,-609,-1487,-312,-46,151,-71,-155
0,349782,2461,689,-609,-1487,-312,-46,151,-71,-155
0,349787,2463,693,-610,-1488,-316,-50,151,-71,-155
0,349792,2463,693,-610,-1488,-316,-50,151,-71,-155
0,349797,2463,693,-610,-1488,-316,-50,151,-71,-155
0,349802,2459,694,-612,-1482,-315,-52,151,-71,-155
0,349808,2459,694,-612,-1482,-315,-52,151,-71,-155
0,349813,2459,694,-612,-1482,-315,-52,151,-71,-155
0,349818,2459,694,-612,-1482,-315,-52,151,-71,-155
0,349825,2458,694,-609,-1493,-302,-49,157,-75,-159
0,349830,2458,694,-609,-1493,-302,-49,157,-75,-159
0,349836,2458,694,-609,-1493,-302,-49,157,-75,-159
0,349841,2458,694,-609,-1493,-302,-49,157,-75,-159
0,349846,2459,692,-609,-1493,-316,-51,157,-75,-159
0,349852,2459,692,-609,-1493,-316,-51,157,-75,-159
0,349857,2459,692,-609,-1493,-316,-51,157,-75,-159
0,349863,2459,695,-608,-1489,-319,-51,157,-75,-159
0,349870,2459,695,-608,-1489,-319,-51,157,-75,-159
0,349877,2459,695,-608,-1489,-319,-51,157,-75,-159
0,349883,2460,691,-610,-1491,-309,-47,157,-75,-159
0,349889,2460,691,-610,-1491,-309,-47,157,-75,-159
0,349895,2460,691,-610,-1491,-309,-47,157,-75,-159
0,349901,2460,691,-610,-1491,-309,-47,157,-75,-159
0,349906,2460,695,-607,-1483,-306,-50,157,-75,-159
0,349913,2460,695,-607,-1483,-306,-50,157,-75,-159
0,349918,2460,695,-607,-1483,-306,-50,157,-75,-159
0,349925,2460,690,-610,-1489,-311,-41,157,-75,-159
0,349931,2460,690,-610,-1489,-311,-41,157,-75,-159
0,349938,2460,690,-610,-1489,-311,-41,157,-75,-159
0,349945,2458,693,-613,-1493,-308,-46,160,-72,-164
0,349952,2458,693,-613,-1493,-308,-46,160,-72,-164
0,349958,2458,693,-613,-1493,-308,-46,160,-72,-164
0,349964,2459,692,-610,-1492,-310,-43,160,-72,-164
0,349969,2459,692,-610,-1492,-310,-43,160,-72,-164
0,349975,2459,692,-610,-1492,-310,-43,160,-72,-164
0,349980,2459,692,-610,-1492,-310,-43,160,-72,-164
0,349986,2461,692,-609,-1490,-310,-45,160,-72,-164
0,349991,2461,692,-609,-1490,-310,-45,160,-72,-164
0,349997,2461,692,-609,-1490,-310,-45,160,-72,-164
0,350004,2462,694,-613,-1488,-314,-43,160,-72,-164
0,350010,2462,694,-613,-1488,-314,-43,160,-72,-164
0,350016,2462,694,-613,-1488,-314,-43,160,-72,-164
0,350021,2462,694,-613,-1488,-314,-43,160,-72,-164
0,350027,2462,695,-615,-1482,-309,-39,160,-72,-164
0,350033,2462,695,-615,-1482,-309,-39,160,-72,-164
0,350040,2462,695,-615,-1482,-309,-39,160,-72,-164
0,350046,2460,691,-612,-1482,-311,-50,160,-72,-164
0,350051,2460,691,-612,-1482,-311,-50,160,-72,-164
0,350057,2460,691,-612,-1482,-311,-50,160,-72,-164
0,350064,2463,691,-614,-1482,-309,-44,160,-72,-164
0,350071,2463,691,-614,-1482,-309,-44,160,-72,-164
0,350077,2463,691,-614,-1482,-309,-44,160,-72,-164
0,350083,2460,693,-605,-1486,-311,-38,153,-71,-157
0,350089,2460,693,-605,-1486,-311,-38,153,-71,-157
0,350095,2460,693,-605,-1486,-311,-38,153,-71,-157
0,350100,2460,693,-605,-1486,-311,-38,153,-71,-157
0,350107,2461,692,-608,-1483,-311,-40,153,-71,-157
0,350113,2461,692,-608,-1483,-311,-40,153,-71,-157
0,350120,2461,692,-608,-1483,-311,-40,153,-71,-157
0,350127,2461,689,-609,-1492,-316,-39,153,-71,-157
0,350133,2461,689,-609,-1492,-316,-39,153,-71,-157
0,350139,2461,689,-609,-1492,-316,-39,153,-71,-157
0,350144,2462,691,-608,-1487,-307,-41,153,-71,-157
0,350150,2462,691,-608,-1487,-307,-41,153,-71,-157
0,350155,2462,691,-608,-1487,-307,-41,153,-71,-157
0,350160,2462,691,-608,-1487,-307,-41,153,-71,-157
0,350167,2461,691,-611,-1490,-310,-42,153,-71,-157
0,350172,2461,691,-611,-1490,-310,-42,153,-71,-157
0,350177,2461,691,-611,-1490,-310,-42,153,-71,-157
0,350182,2459,694,-611,-1487,-320,-42,153,-71,-157
0,350188,2459,694,-611,-1487,-320,-42,153,-71,-157
0,350193,2459,694,-611,-1487,-320,-42,153,-71,-157
0,350198,2459,694,-611,-1487,-320,-42,153,-71,-157
0,350204,2462,692,-603,-1486,-322,-41,159,-67,-167
0,350210,2462,692,-603,-1486,-322,-41,159,-67,-167
0,350215,2462,692,-603,-1486,-322,-41,159,-67,-167
0,350220,2462,692,-603,-1486,-322,-41,159,-67,-167
0,350225,2462,693,-605,-1487,-319,-49,159,-67,-167
0,350230,2462,693,-605,-1487,-319,-49,159,-67,-167
0,350236,2462,693,-605,-1487,-319,-49,159,-67,-167
0,350242,2458,690,-608,-1486,-311,-46,159,-67,-167
0,350248,2458,690,-608,-1486,-311,-46,159,-67,-167
0,350254,2458,690,-608,-1486,-311,-46,159,-67,-167
0,350259,2458,690,-608,-1486,-311,-46,159,-67,-167
0,350265,2456,691,-612,-1484,-314,-47,159,-67,-167
0,350270,2456,691,-612,-1484,-314,-47,159,-67,-167
0,350276,2456,691,-612,-1484,-314,-47,159,-67,-167
0,350281,2456,691,-612,-1484,-314,-47,159,-67,-167
0,350286,2459,690,-611,-1489,-311,-41,159,-67,-167
0,350291,2459,690,-611,-1489,-311,-41,159,-67,-167
0,350297,2459,690,-611,-1489,-311,-41,159,-67,-167
0,350303,2456,691,-609,-1486,-316,-45,159,-67,-167
0,350308,2456,691,-609,-1486,-316,-45,159,-67,-167
0,350314,2456,691,-609,-1486,-316,-45,159,-67,-167
0,350319,2456,691,-609,-1486,-316,-45,159,-67,-167
0,350324,2458,692,-605,-1485,-311,-49,156,-72,-166
0,350330,2458,692,-605,-1485,-311,-49,156,-72,-166
0,350336,2458,692,-605,-1485,-311,-49,156,-72,-166
0,350342,2458,692,-605,-1485,-311,-49,156,-72,-166
0,350347,2459,694,-604,-1492,-313,-49,156,-72,-166
0,350352,2459,694,-604,-1492,-313,-49,156,-72,-166
0,350358,2459,694,-604,-1492,-313,-49,156,-72,-166
0,350363,2460,693,-610,-1485,-316,-41,156,-72,-166
0,350368,2460,693,-610,-1485,-316,-41,156,-72,-166
0,350374,2460,693,-610,-1485,-316,-41,156,-72,-166
0,350380,2460,693,-610,-1485,-316,-41,156,-72,-166
0,350386,2462,691,-609,-1492,-322,-39,156,-72,-166
0,350391,2462,691,-609,-1492,-322,-39,156,-72,-166
0,350396,2462,691,-609,-1492,-322,-39,156,-72,-166
0,350401,2462,691,-609,-1492,-322,-39,156,-72,-166
0,350406,2460,693,-608,-1492,-321,-36,156,-72,-166
0,350412,2460,693,-608,-1492,-321,-36,156,-72,-166
0,350417,2460,693,-608,-1492,-321,-36,156,-72,-166
0,350424,2461,689,-616,-1492,-312,-39,156,-72,-166
0,350430,2461,689,-616,-1492,-312,-39,156,-72,-166
0,350435,2461,689,-616,-1492,-312,-39,156,-72,-166
0,350440,2461,689,-616,-1492,-312,-39,156,-72,-166
0,350446,2462,692,-614,-1491,-310,-44,151,-73,-159
0,350451,2462,692,-614,-1491,-310,-44,151,-73,-159
0,350456,2462,692,-614,-1491,-310,-44,151,-73,-159
0,350461,2462,692,-614,-1491,-310,-44,151,-73,-159
0,350468,2460,689,-600,-1490,-311,-38,151,-73,-159
0,350473,2460,689,-600,-1490,-311,-38,151,-73,-159
0,350479,2460,689,-600,-1490,-311,-38,151,-73,-159
0,350484,2460,694,-607,-1488,-315,-44,151,-73,-159
0,350489,2460,694,-607,-1488,-315,-44,151,-73,-159
0,350494,2460,694,-607,-1488,-315,-44,151,-73,-159
0,350500,2460,694,-607,-1488,-315,-44,151,-73,-159
0,350505,2461,695,-607,-1489,-321,-43,151,-73,-159
0,350512,2461,695,-607,-1489,-321,-43,151,-73,-159
0,350517,2461,695,-607,-1489,-321,-43,151,-73,-159
0,350522,2460,690,-608,-1492,-307,-37,151,-73,-159
0,350528,2460,690,-608,-1492,-307,-37,151,-73,-159
0,350533,2460,690,-608,-1492,-307,-37,151,-73,-159
0,350538,2460,690,-608,-1492,-307,-37,151,-73,-159
0,350543,2460,692,-614,-1490,-307,-45,151,-73,-159
0,350550,2460,692,-614,-1490,-307,-45,151,-73,-159
0,350556,2460,692,-614,-1490,-307,-45,151,-73,-159
0,350561,2460,692,-614,-1490,-307,-45,151,-73,-159
0,350566,2460,689,-611,-1485,-304,-48,156,-76,-158
0,350572,2460,689,-611,-1485,-304,-48,156,-76,-158
0,350577,2460,689,-611,-1485,-304,-48,156,-76,-158
0,350582,2459,692,-610,-1487,-310,-48,156,-76,-158
0,350587,2459,692,-610,-1487,-310,-48,156,-76,-158
0,350594,2459,692,-610,-1487,-310,-48,156,-76,-158
0,350599,2459,692,-610,-1487,-310,-48,156,-76,-158
0,350604,2459,692,-606,-1486,-309,-39,156,-76,-158
0,350609,2459,692,-606,-1486,-309,-39,156,-76,-158
0,350614,2459,692,-606,-1486,-309,-39,156,-76,-158
0,350620,2459,692,-606,-1486,-309,-39,156,-76,-158
0,350626,2461,692,-610,-1488,-309,-40,156,-76,-158
0,350631,2461,692,-610,-1488,-309,-40,156,-76,-158
0,350639,2461,692,-610,-1488,-309,-40,156,-76,-158
0,350644,2464,694,-610,-1488,-320,-36,156,-76,-158
0,350650,2464,694,-610,-1488,-320,-36,156,-76,-158
0,350655,2464,694,-610,-1488,-320,-36,156,-76,-158
0,350660,2464,694,-610,-1488,-320,-36,156,-76,-158
0,350666,2460,691,-607,-1489,-311,-41,156,-76,-158
0,350671,2460,691,-607,-1489,-311,-41,156,-76,-158
0,350676,2460,691,-607,-1489,-311,-41,156,-76,-158
0,350683,2460,691,-607,-1489,-311,-41,156,-76,-158
0,350688,2460,691,-607,-1489,-311,-41,156,-76,-158
0,350693,2460,691,-607,-1489,-311,-41,156,-76,-158
0,350699,2460,691,-607,-1489,-311,-41,156,-76,-158
0,350704,2457,693,-610,-1487,-306,-50,163,-71,-161
0,350709,2457,693,-610,-1487,-306,-50,163,-71,-161
0,350714,2457,693,-610,-1487,-306,-50,163,-71,-161
0,350720,2457,693,-610,-1487,-306,-50,163,-71,-161
0,350726,2460,692,-607,-1483,-310,-42,163,-71,-161
0,350731,2460,692,-607,-1483,-310,-42,163,-71,-161
0,350736,2460,692,-607,-1483,-310,-42,163,-71,-161
0,350742,2460,694,-614,-1484,-312,-42,163,-71,-161
0,350748,2460,694,-614,-1484,-312,-42,163,-71,-161
0,350754,2460,694,-614,-1484,-312,-42,163,-71,-161
0,350759,2460,694,-614,-1484,-312,-42,163,-71,-161
0,350766,2456,695,-610,-1487,-310,-47,163,-71,-161
0,350771,2456,695,-610,-1487,-310,-47,163,-71,-161
0,350776,2456,695,-610,-1487,-310,-47,163,-71,-161
0,350781,2456,695,-610,-1487,-310,-47,163,-71,-161
0,350787,2459,690,-607,-1490,-311,-43,163,-71,-161
0,350791,2459,690,-607,-1490,-311,-43,163,-71,-161
0,350796,2459,690,-607,-1490,-311,-43,163,-71,-161
0,350802,2460,693,-612,-1488,-313,-38,163,-71,-161
0,350808,2460,693,-612,-1488,-313,-38,163,-71,-161
0,350814,2460,693,-612,-1488,-313,-38,163,-71,-161
0,350819,2460,693,-612,-1488,-313,-38,163,-71,-161
0,350824,2459,691,-608,-1488,-309,-39,154,-74,-152
0,350829,2459,691,-608,-1488,-309,-39,154,-74,-152
0,350834,2459,691,-608,-1488,-309,-39,154,-74,-152
0,350839,2459,691,-608,-1488,-309,-39,154,-74,-152
0,350844,2462,690,-608,-1496,-309,-36,154,-74,-152
0,350851,2462,690,-608,-1496,-309,-36,154,-74,-152
0,350856,2462,690,-608,-1496,-309,-36,154,-74,-152
0,350862,2462,690,-608,-1496,-309,-36,154,-74,-152
0,350867,2460,692,-613,-1486,-310,-41,154,-74,-152
0,350872,2460,692,-613,-1486,-310,-41,154,-74,-152
0,350878,2460,692,-613,-1486,-310,-41,154,-74,-152
0,350883,2460,690,-609,-1481,-312,-45,154,-74,-152
0,350888,2460,690,-609,-1481,-312,-45,154,-74,-152
0,350895,2460,690,-609,-1481,-312,-45,154,-74,-152
0,350900,2460,690,-609,-1481,-312,-45,154,-74,-152
0,350906,2460,693,-610,-1483,-312,-46,154,-74,-152
0,350911,2460,693,-610,-1483,-312,-46,154,-74,-152
0,350916,2460,693,-610,-1483,-312,-46,154,-74,-152
0,350921,2460,693,-610,-1483,-312,-46,154,-74,-152
0,350926,2460,693,-610,-1486,-314,-40,154,-74,-152
0,350931,2460,693,-610,-1486,-314,-40,154,-74,-152
0,350938,2460,693,-610,-1486,-314,-40,154,-74,-152
0,350943,2460,691,-603,-1489,-306,-46,165,-69,-159
0,350948,2460,691,-603,-1489,-306,-46,165,-69,-159
0,350953,2460,691,-603,-1489,-306,-46,165,-69,-159
0,350958,2460,691,-603,-1489,-306,-46,165,-69,-159
0,350963,2459,691,-608,-1491,-317,-43,165,-69,-159
0,350969,2459,691,-608,-1491,-317,-43,165,-69,-159
0,350974,2459,691,-608,-1491,-317,-43,165,-69,-159
0,350981,2459,691,-608,-1491,-317,-43,165,-69,-159
0,350987,2460,690,-612,-1490,-313,-53,165,-69,-159
0,350992,2460,690,-612,-1490,-313,-53,165,-69,-159
0,350998,2460,690,-612,-1490,-313,-53,165,-69,-159
0,351003,2457,690,-609,-1491,-311,-44,165,-69,-159
0,351008,2457,690,-609,-1491,-311,-44,165,-69,-159
0,351014,2457,690,-609,-1491,-311,-44,165,-69,-159
0,351020,2457,690,-609,-1491,-311,-44,165,-69,-159
0,351026,2459,691,-612,-1490,-316,-36,165,-69,-159
0,351031,2459,691,-612,-1490,-316,-36,165,-69,-159
0,351036,2459,691,-612,-1490,-316,-36,165,-69,-159
0,351041,2459,691,-612,-1490,-316,-36,165,-69,-159
0,351047,2460,694,-609,-1487,-314,-39,165,-69,-159
0,351052,2460,694,-609,-1487,-314,-39,165,-69,-159
0,351058,2460,694,-609,-1487,-314,-39,165,-69,-159
0,351064,2459,690,-611,-1485,-314,-40,155,-67,-163
0,351069,2459,690,-611,-1485,-314,-40,155,-67,-163
0,351074,2459,690,-611,-1485,-314,-40,155,-67,-163
0,351079,2459,690,-611,-1485,-314,-40,155,-67,-163
0,351085,2461,693,-609,-1488,-314,-40,155,-67,-163
0,351090,2461,693,-609,-1488,-314,-40,155,-67,-163
0,351096,2461,693,-609,-1488,-314,-40,155,-67,-163
0,351101,2461,693,-609,-1488,-314,-40,155,-67,-163
0,351107,2460,693,-614,-1486,-319,-42,155,-67,-163
0,351112,2460,693,-614,-1486,-319,-42,155,-67,-163
0,351118,2460,693,-614,-1486,-319,-42,155,-67,-163
0,351123,2459,692,-606,-1491,-315,-43,155,-67,-163
0,351129,2459,692,-606,-1491,-315,-43,155,-67,-163
0,351135,2459,692,-606,-1491,-315,-43,155,-67,-163
0,351140,2459,692,-606,-1491,-315,-43,155,-67,-163
0,351147,2457,692,-610,-1490,-309,-42,155,-67,-163
0,351152,2457,692,-610,-1490,-309,-42,155,-67,-163
0,351158,2457,692,-610,-1490,-309,-42,155,-67,-163
0,351163,2460,690,-613,-1481,-318,-41,155,-67,-163
0,351169,2460,690,-613,-1481,-318,-41,155,-67,-163
0,351174,2460,690,-613,-1481,-318,-41,155,-67,-163
0,351179,2460,690,-613,-1481,-318,-41,155,-67,-163
0,351184,2460,692,-609,-1490,-316,-40,155,-67,-163
0,351190,2460,692,-609,-1490,-316,-40,155,-67,-163
0,351196,2460,692,-609,-1490,-316,-40,155,-67,-163
0,351202,2460,692,-609,-1490,-316,-40,155,-67,-163
0,351207,2458,694,-606,-1494,-311,-52,161,-65,-151
0,351213,2458,694,-606,-1494,-311,-52,161,-65,-151
0,351218,2458,694,-606,-1494,-311,-52,161,-65,-151
0,351223,2461,691,-608,-1495,-312,-37,161,-65,-151
0,351229,2461,691,-608,-1495,-312,-37,161,-65,-151
0,351235,2461,691,-608,-1495,-312,-37,161,-65,-151
0,351241,2461,691,-608,-1495,-312,-37,161,-65,-151
0,351246,2459,691,-607,-1486,-313,-48,161,-65,-151
0,351251,2459,691,-607,-1486,-313,-48,161,-65,-151
0,351256,2459,691,-607,-1486,-313,-48,161,-65,-151
0,351262,2459,691,-607,-1486,-313,-48,161,-65,-151
0,351267,2458,692,-611,-1479,-316,-47,161,-65,-151
0,351272,2458,692,-611,-1479,-316,-47,161,-65,-151
0,351278,2458,692,-611,-1479,-316,-47,161,-65,-151
0,351283,2459,694,-614,-1484,-307,-48,161,-65,-151
0,351289,2459,694,-614,-1484,-307,-48,161,-65,-151
0,351294,2459,694,-614,-1484,-307,-48,161,-65,-151
0,351300,2459,694,-614,-1484,-307,-48,161,-65,-151
0,351305,2459,693,-614,-1483,-312,-49,161,-65,-151
0,351311,2459,693,-614,-1483,-312,-49,161,-65,-151
0,351316,2459,693,-614,-1483,-312,-49,161,-65,-151
0,351322,2459,693,-614,-1483,-312,-49,161,-65,-151
0,351327,2460,695,-608,-1474,-311,-42,162,-66,-160
0,351333,2460,695,-608,-1474,-311,-42,162,-66,-160
0,351338,2460,695,-608,-1474,-311,-42,162,-66,-160
0,351344,2458,690,-606,-1484,-314,-39,162,-66,-160
0,351350,2458,690,-606,-1484,-314,-39,162,-66,-160
0,351355,2458,690,-606,-1484,-314,-39,162,-66,-160
0,351361,2458,690,-606,-1484,-314,-39,162,-66,-160
0,351367,2458,693,-612,-1486,-312,-43,162,-66,-160
0,351373,2458,693,-612,-1486,-312,-43,162,-66,-160
0,351378,2458,693,-612,-1486,-312,-43,162,-66,-160
0,351384,2458,694,-609,-1480,-311,-38,162,-66,-160
0,351389,2458,694,-609,-1480,-311,-38,162,-66,-160
0,351394,2458,694,-609,-1480,-311,-38,162,-66,-160
0,351400,2458,694,-609,-1480,-311,-38,162,-66,-160
0,351406,2460,690,-613,-1481,-311,-46,162,-66,-160
0,351412,2460,690,-613,-1481,-311,-46,162,-66,-160
0,351417,2460,690,-613,-1481,-311,-46,162,-66,-160
0,351422,2460,690,-613,-1481,-311,-46,162,-66,-160
0,351428,2461,690,-611,-1488,-312,-51,162,-66,-160
0,351433,2461,690,-611,-1488,-312,-51,162,-66,-160
0,351438,2461,690,-611,-1488,-312,-51,162,-66,-160
0,351443,2458,691,-609,-1486,-305,-46,160,-78,-168
0,351449,2458,691,-609,-1486,-305,-46,160,-78,-168
0,351454,2458,691,-609,-1486,-305,-46,160,-78,-168
0,351460,2458,691,-609,-1486,-305,-46,160,-78,-168
0,351465,2461,692,-606,-1484,-310,-55,160,-78,-168
0,351470,2461,692,-606,-1484,-310,-55,160,-78,-168
0,351475,2461,692,-606,-1484,-310,-55,160,-78,-168
0,351480,2461,692,-606,-1484,-310,-55,160,-78,-168
0,351485,2460,695,-609,-1487,-314,-52,160,-78,-168
0,351490,2460,695,-609,-1487,-314,-52,160,-78,-168
0,351496,2460,695,-609,-1487,-314,-52,160,-78,-168
0,351501,2460,695,-609,-1487,-314,-52,160,-78,-168
0,351506,2459,693,-611,-1484,-318,-48,160,-78,-168
0,351512,2459,693,-611,-1484,-318,-48,160,-78,-168
0,351517,2459,693,-611,-1484,-318,-48,160,-78,-168
0,351522,2462,695,-611,-1487,-320,-47,160,-78,-168
0,351528,2462,695,-611,-1487,-320,-47,160,-78,-168
0,351534,2462,695,-611,-1487,-320,-47,160,-78,-168
0,351540,2462,695,-611,-1487,-320,-47,160,-78,-168
0,351545,2463,695,-609,-1492,-308,-41,160,-78,-168
0,351550,2463,695,-609,-1492,-308,-41,160,-78,-168
0,351555,2463,695,-609,-1492,-308,-41,160,-78,-168
0,351561,2463,695,-609,-1492,-308,-41,160,-78,-168
0,351566,2460,694,-606,-1491,-311,-44,152,-78,-160
0,351572,2460,694,-606,-1491,-311,-44,152,-78,-160
0,351579,2460,694,-606,-1491,-311,-44,152,-78,-160
0,351584,2464,689,-605,-1487,-309,-46,152,-78,-160
0,351589,2464,689,-605,-1487,-309,-46,152,-78,-160
0,351594,2464,689,-605,-1487,-309,-46,152,-78,-160
0,351600,2464,689,-605,-1487,-309,-46,152,-78,-160
0,351605,2460,692,-607,-1494,-309,-51,152,-78,-160
0,351611,2460,692,-607,-1494,-309,-51,152,-78,-160
0,351618,2460,692,-607,-1494,-309,-51,152,-78,-160
0,351623,2458,692,-611,-1485,-310,-49,152,-78,-160
0,351628,2458,692,-611,-1485,-310,-49,152,-78,-160
0,351634,2458,692,-611,-1485,-310,-49,152,-78,-160
0,351639,2458,692,-611,-1485,-310,-49,152,-78,-160
0,351645,2458,690,-612,-1481,-317,-41,152,-78,-160
0,351650,2458,690,-612,-1481,-317,-41,152,-78,-160
0,351656,2458,690,-612,-1481,-317,-41,152,-78,-160
0,351664,2459,689,-606,-1488,-306,-41,152,-78,-160
0,351670,2459,689,-606,-1488,-306,-41,152,-78,-160
0,351675,2459,689,-606,-1488,-306,-41,152,-78,-160
0,351681,2459,689,-606,-1488,-306,-41,152,-78,-160
0,351687,2459,690,-611,-1493,-306,-41,159,-79,-163
0,351692,2459,690,-611,-1493,-306,-41,159,-79,-163
0,351698,2459,690,-611,-1493,-306,-41,159,-79,-163
0,351704,2458,693,-608,-1483,-315,-45,159,-79,-163
0,351710,2458,693,-608,-1483,-315,-45,159,-79,-163
0,351716,2458,693,-608,-1483,-315,-45,159,-79,-163
0,351722,2458,693,-608,-1483,-315,-45,159,-79,-163
0,351728,2459,691,-610,-1481,-315,-45,159,-79,-163
0,351733,2459,691,-610,-1481,-315,-45,159,-79,-163
0,351738,2459,691,-610,-1481,-315,-45,159,-79,-163
0,351745,2459,689,-609,-1488,-311,-42,159,-79,-163
0,351751,2459,689,-609,-1488,-311,-42,159,-79,-163
0,351756,2459,689,-609,-1488,-311,-42,159,-79,-163
0,351762,2459,689,-609,-1488,-311,-42,159,-79,-163
0,351767,2460,692,-606,-1486,-309,-46,159,-79,-163
0,351772,2460,692,-606,-1486,-309,-46,159,-79,-163
0,351778,2460,692,-606,-1486,-309,-46,159,-79,-163
0,351783,2460,691,-610,-1485,-316,-48,159,-79,-163
0,351790,2460,691,-610,-1485,-316,-48,159,-79,-163
0,351795,2460,691,-610,-1485,-316,-48,159,-79,-163
0,351801,2460,691,-610,-1485,-316,-48,159,-79,-163
0,351806,2460,691,-610,-1485,-316,-48,159,-79,-163
0,351811,2460,691,-610,-1485,-316,-48,159,-79,-163
0,351816,2460,691,-610,-1485,-316,-48,159,-79,-163
0,351822,2460,691,-610,-1485,-316,-48,159,-79,-163
0,351827,2458,695,-607,-1493,-315,-44,153,-63,-155
0,351834,2458,695,-607,-1493,-315,-44,153,-63,-155
0,351839,2458,695,-607,-1493,-315,-44,153,-63,-155
0,351845,2459,692,-609,-1487,-306,-42,153,-63,-155
0,351850,2459,692,-609,-1487,-306,-42,153,-63,-155
0,351856,2459,692,-609,-1487,-306,-42,153,-63,-155
0,351861,2459,692,-609,-1487,-306,-42,153,-63,-155
0,351867,2458,694,-611,-1484,-314,-38,153,-63,-155
0,351873,2458,694,-611,-1484,-314,-38,153,-63,-155
0,351879,2458,694,-611,-1484,-314,-38,153,-63,-155
0,351885,2461,691,-611,-1484,-313,-39,153,-63,-155
0,351891,2461,691,-611,-1484,-313,-39,153,-63,-155
0,351896,2461,691,-611,-1484,-313,-39,153,-63,-155
0,351902,2461,691,-611,-1484,-313,-39,153,-63,-155
0,351907,2459,693,-611,-1494,-311,-47,153,-63,-155
0,351913,2459,693,-611,-1494,-311,-47,153,-63,-155
0,351919,2459,693,-611,-1494,-311,-47,153,-63,-155
0,351924,2460,690,-612,-1486,-310,-45,153,-63,-155
0,351930,2460,690,-612,-1486,-310,-45,153,-63,-155
0,351935,2460,690,-612,-1486,-310,-45,153,-63,-155
0,351941,2460,690,-612,-1486,-310,-45,153,-63,-155
0,351947,2461,693,-605,-1489,-311,-50,158,-62,-158
0,351952,2461,693,-605,-1489,-311,-50,158,-62,-158
0,351960,2461,693,-605,-1489,-311,-50,158,-62,-158
0,351966,2460,693,-610,-1487,-317,-46,158,-62,-158
0,351972,2460,693,-610,-1487,-317,-46,158,-62,-158
0,351978,2460,693,-610,-1487,-317,-46,158,-62,-158
0,351983,2460,694,-611,-1485,-316,-51,158,-62,-158
0,351988,2460,694,-611,-1485,-316,-51,158,-62,-158
0,351994,2460,694,-611,-1485,-316,-51,158,-62,-158
0,352000,2460,694,-611,-1485,-316,-51,158,-62,-158
0,352006,2457,692,-607,-1482,-314,-41,158,-62,-158
0,352012,2457,692,-607,-1482,-314,-41,158,-62,-158
0,352019,2457,692,-607,-1482,-314,-41,158,-62,-158
0,352024,2461,693,-606,-1493,-314,-46,158,-62,-158
0,352029,2461,693,-606,-1493,-314,-46,158,-62,-158
0,352034,2461,693,-606,-1493,-314,-46,158,-62,-158
0,352040,2461,693,-606,-1493,-314,-46,158,-62,-158
0,352046,2460,693,-612,-1494,-315,-41,158,-62,-158
0,352052,2460,693,-612,-1494,-315,-41,158,-62,-158
0,352057,2460,693,-612,-1494,-315,-41,158,-62,-158
0,352062,2460,693,-612,-1494,-315,-41,158,-62,-158
0,352068,2461,691,-607,-1485,-313,-44,151,-67,-173
0,352073,2461,691,-607,-1485,-313,-44,151,-67,-173
0,352079,2461,691,-607,-1485,-313,-44,151,-67,-173
0,352086,2459,691,-608,-1489,-316,-43,151,-67,-173
0,352091,2459,691,-608,-1489,-316,-43,151,-67,-173
0,352097,2459,691,-608,-1489,-316,-43,151,-67,-173
0,352102,2459,691,-608,-1489,-316,-43,151,-67,-173
0,352108,2460,693,-616,-1492,-320,-50,151,-67,-173
0,352113,2460,693,-616,-1492,-320,-50,151,-67,-173
0,352119,2460,693,-616,-1492,-320,-50,151,-67,-173
0,352124,2461,693,-614,-1489,-318,-49,151,-67,-173
0,352131,2461,693,-614,-1489,-318,-49,151,-67,-173
0,352137,2461,693,-614,-1489,-318,-49,151,-67,-173
0,352141,2461,693,-614,-1489,-318,-49,151,-67,-173
0,352147,2458,692,-611,-1489,-317,-42,151,-67,-173
0,352152,2458,692,-611,-1489,-317,-42,151,-67,-173
0,352157,2458,692,-611,-1489,-317,-42,151,-67,-173
0,352163,2460,691,-607,-1488,-314,-42,151,-67,-173
0,352168,2460,691,-607,-1488,-314,-42,151,-67,-173
0,352175,2460,691,-607,-1488,-314,-42,151,-67,-173
0,352180,2460,691,-607,-1488,-314,-42,151,-67,-173
0,352185,2459,694,-613,-1481,-314,-47,167,-71,-159
0,352190,2459,694,-613,-1481,-314,-47,167,-71,-159
0,352196,2459,694,-613,-1481,-314,-47,167,-71,-159
0,352201,2459,694,-613,-1481,-314,-47,167,-71,-159
0,352206,2457,691,-602,-1483,-312,-43,167,-71,-159
0,352211,2457,691,-602,-1483,-312,-43,167,-71,-159
0,352217,2457,691,-602,-1483,-312,-43,167,-71,-159
0,352223,2460,692,-611,-1480,-309,-47,167,-71,-159
0,352228,2460,692,-611,-1480,-309,-47,167,-71,-159
0,352233,2460,692,-611,-1480,-309,-47,167,-71,-159
0,352238,2460,692,-611,-1480,-309,-47,167,-71,-159
0,352244,2459,690,-612,-1485,-312,-51,167,-71,-159
0,352250,2459,690,-612,-1485,-312,-51,167,-71,-159
0,352256,2459,690,-612,-1485,-312,-51,167,-71,-159
0,352261,2459,690,-612,-1485,-312,-51,167,-71,-159
0,352267,2459,692,-612,-1480,-314,-50,167,-71,-159
0,352272,2459,692,-612,-1480,-314,-50,167,-71,-159
0,352277,2459,692,-612,-1480,-314,-50,167,-71,-159
0,352283,2460,690,-607,-1488,-315,-43,167,-71,-159
0,352288,2460,690,-607,-1488,-315,-43,167,-71,-159
0,352294,2460,690,-607,-1488,-315,-43,167,-71,-159
0,352300,2460,690,-607,-1488,-315,-43,167,-71,-159
0,352306,2459,692,-612,-1494,-308,-45,154,-68,-164
0,352311,2459,692,-612,-1494,-308,-45,154,-68,-164
0,352317,2459,692,-612,-1494,-308,-45,154,-68,-164
0,352322,2459,692,-612,-1494,-308,-45,154,-68,-164
0,352327,2462,692,-608,-1487,-311,-41,154,-68,-164
0,352332,2462,692,-608,-1487,-311,-41,154,-68,-164
0,352337,2462,692,-608,-1487,-311,-41,154,-68,-164
0,352344,2460,691,-608,-1487,-315,-45,154,-68,-164
0,352350,2460,691,-608,-1487,-315,-45,154,-68,-164
0,352355,2460,691,-608,-1487,-315,-45,154,-68,-164
0,352361,2460,691,-608,-1487,-315,-45,154,-68,-164
0,352366,2459,692,-608,-1484,-313,-46,154,-68,-164
0,352371,2459,692,-608,-1484,-313,-46,154,-68,-164
0,352377,2459,692,-608,-1484,-313,-46,154,-68,-164
0,352382,2461,692,-609,-1485,-310,-43,154,-68,-164
0,352389,2461,692,-609,-1485,-310,-43,154,-68,-164
0,352395,2461,692,-609,-1485,-310,-43,154,-68,-164
0,352400,2461,692,-609,-1485,-310,-43,154,-68,-164
0,352406,2458,689,-607,-1485,-315,-49,154,-68,-164
0,352411,2458,689,-607,-1485,-315,-49,154,-68,-164
0,352416,2458,689,-607,-1485,-315,-49,154,-68,-164
0,352422,2458,689,-607,-1485,-315,-49,154,-68,-164
0,352428,2460,697,-609,-1486,-320,-43,154,-68,-164
0,352433,2460,697,-609,-1486,-320,-43,154,-68,-164
0,352438,2460,697,-609,-1486,-320,-43,154,-68,-164
0,352443,2462,694,-610,-1487,-314,-44,159,-71,-167
0,352448,2462,694,-610,-1487,-314,-44,159,-71,-167
0,352454,2462,694,-610,-1487,-314,-44,159,-71,-167
0,352460,2462,694,-610,-1487,-314,-44,159,-71,-167
0,352465,2460,692,-605,-1490,-315,-45,159,-71,-167
0,352471,2460,692,-605,-1490,-315,-45,159,-71,-167
0,352477,2460,692,-605,-1490,-315,-45,159,-71,-167
0,352482,2460,692,-605,-1490,-315,-45,159,-71,-167
0,352487,2461,692,-608,-1483,-313,-40,159,-71,-167
0,352493,2461,692,-608,-1483,-313,-40,159,-71,-167
0,352498,2461,692,-608,-1483,-313,-40,159,-71,-167
0,352503,2459,691,-613,-1485,-313,-46,159,-71,-167
0,352509,2459,691,-613,-1485,-313,-46,159,-71,-167
0,352515,2459,691,-613,-1485,-313,-46,159,-71,-167
0,352520,2459,691,-613,-1485,-313,-46,159,-71,-167
0,352526,2459,693,-616,-1481,-312,-43,159,-71,-167
0,352531,2459,693,-616,-1481,-312,-43,159,-71,-167
0,352537,2459,693,-616,-1481,-312,-43,159,-71,-167
0,352542,2459,693,-616,-1481,-312,-43,159,-71,-167
0,352548,2456,690,-611,-1489,-311,-50,159,-71,-167
0,352553,2456,690,-611,-1489,-311,-50,159,-71,-167
0,352560,2456,690,-611,-1489,-311,-50,159,-71,-167
0,352565,2462,692,-607,-1491,-313,-45,161,-77,-163
0,352570,2462,692,-607,-1491,-313,-45,161,-77,-163
0,352575,2462,692,-607,-1491,-313,-45,161,-77,-163
0,352580,2462,692,-607,-1491,-313,-45,161,-77,-163
0,352585,2459,694,-608,-1492,-310,-47,161,-77,-163
0,352591,2459,694,-608,-1492,-310,-47,161,-77,-163
0,352596,2459,694,-608,-1492,-310,-47,161,-77,-163
0,352602,2459,694,-608,-1492,-310,-47,161,-77,-163
0,352607,2461,691,-614,-1492,-315,-47,161,-77,-163
0,352613,2461,691,-614,-1492,-315,-47,161,-77,-163
0,352618,2461,691,-614,-1492,-315,-47,161,-77,-163
0,352623,2460,691,-610,-1487,-307,-45,161,-77,-163
0,352629,2460,691,-610,-1487,-307,-45,161,-77,-163
0,352634,2460,691,-610,-1487,-307,-45,161,-77,-163
0,352641,2460,691,-610,-1487,-307,-45,161,-77,-163
0,352646,2461,693,-608,-1484,-313,-48,161,-77,-163
0,352651,2461,693,-608,-1484,-313,-48,161,-77,-163
0,352657,2461,693,-608,-1484,-313,-48,161,-77,-163
0,352662,2461,693,-608,-1484,-313,-48,161,-77,-163
0,352668,2458,694,-610,-1490,-309,-44,161,-77,-163
0,352673,2458,694,-610,-1490,-309,-44,161,-77,-163
0,352678,2458,694,-610,-1490,-309,-44,161,-77,-163
0,352685,2460,692,-608,-1487,-310,-40,153,-65,-157
0,352690,2460,692,-608,-1487,-310,-40,153,-65,-157
0,352696,2460,692,-608,-1487,-310,-40,153,-65,-157
0,352701,2460,692,-608,-1487,-310,-40,153,-65,-157
0,352706,2459,694,-612,-1494,-316,-39,153,-65,-157
0,352711,2459,694,-612,-1494,-316,-39,153,-65,-157
0,352716,2459,694,-612,-1494,-316,-39,153,-65,-157
0,352723,2460,694,-606,-1491,-320,-36,153,-65,-157
0,352730,2460,694,-606,-1491,-320,-36,153,-65,-157
0,352736,2460,694,-606,-1491,-320,-36,153,-65,-157
0,352741,2460,694,-606,-1491,-320,-36,153,-65,-157
0,352747,2461,693,-608,-1489,-317,-36,153,-65,-157
0,352752,2461,693,-608,-1489,-317,-36,153,-65,-157
0,352758,2461,693,-608,-1489,-317,-36,153,-65,-157
0,352763,2459,691,-607,-1494,-313,-43,153,-65,-157
0,352770,2459,691,-607,-1494,-313,-43,153,-65,-157
0,352776,2459,691,-607,-1494,-313,-43,153,-65,-157
0,352782,2459,691,-607,-1494,-313,-43,153,-65,-157
0,352787,2460,688,-610,-1490,-313,-40,153,-65,-157
0,352793,2460,688,-610,-1490,-313,-40,153,-65,-157
0,352799,2460,688,-610,-1490,-313,-40,153,-65,-157
0,352804,2463,690,-613,-1491,-317,-37,169,-75,-161
0,352811,2463,690,-613,-1491,-317,-37,169,-75,-161
0,352816,2463,690,-613,-1491,-317,-37,169,-75,-161
0,352821,2463,690,-613,-1491,-317,-37,169,-75,-161
0,352827,2462,693,-610,-1489,-309,-44,169,-75,-161
0,352832,2462,693,-610,-1489,-309,-44,169,-75,-161
0,352838,2462,693,-610,-1489,-309,-44,169,-75,-161
0,352843,2458,694,-613,-1484,-310,-44,169,-75,-161
0,352848,2458,694,-613,-1484,-310,-44,169,-75,-161
0,352854,2458,694,-613,-1484,-310,-44,169,-75,-161
0,352859,2458,694,-613,-1484,-310,-44,169,-75,-161
0,352865,2459,694,-610,-1488,-316,-38,169,-75,-161
0,352871,2459,694,-610,-1488,-316,-38,169,-75,-161
0,352876,2459,694,-610,-1488,-316,-38,169,-75,-161
0,352881,2459,694,-610,-1488,-316,-38,169,-75,-161
0,352886,2460,693,-610,-1485,-312,-51,169,-75,-161
0,352892,2460,693,-610,-1485,-312,-51,169,-75,-161
0,352899,2460,693,-610,-1485,-312,-51,169,-75,-161
0,352906,2461,693,-609,-1482,-316,-46,169,-75,-161
0,352911,2461,693,-609,-1482,-316,-46,169,-75,-161
0,352917,2461,693,-609,-1482,-316,-46,169,-75,-161
0,352923,2461,693,-609,-1482,-316,-46,169,-75,-161
0,352928,2460,690,-610,-1484,-319,-46,160,-72,-160
0,352934,2460,690,-610,-1484,-319,-46,160,-72,-160
0,352941,2460,690,-610,-1484,-319,-46,160,-72,-160
0,352947,2459,691,-606,-1493,-319,-46,160,-72,-160
0,352953,2459,691,-606,-1493,-319,-46,160,-72,-160
0,352958,2459,691,-606,-1493,-319,-46,160,-72,-160
0,352963,2459,691,-612,-1484,-315,-48,160,-72,-160
0,352969,2459,691,-612,-1484,-315,-48,160,-72,-160
0,352975,2459,691,-612,-1484,-315,-48,160,-72,-160
0,352982,2459,691,-612,-1484,-315,-48,160,-72,-160
0,352989,2460,691,-612,-1488,-318,-42,160,-72,-160
0,352996,2460,691,-612,-1488,-318,-42,160,-72,-160
0,353002,2460,691,-612,-1488,-318,-42,160,-72,-160
0,353010,2460,692,-610,-1495,-317,-47,160,-72,-160
0,353016,2460,692,-610,-1495,-317,-47,160,-72,-160
0,353022,2460,692,-610,-1495,-317,-47,160,-72,-160
0,353029,2462,692,-609,-1488,-310,-51,160,-72,-160
0,353035,2462,692,-609,-1488,-310,-51,160,-72,-160
0,353041,2462,692,-609,-1488,-310,-51,160,-72,-160
0,353047,2460,693,-606,-1497,-313,-44,160,-72,-160
0,353053,2460,693,-606,-1497,-313,-44,160,-72,-160
0,353059,2460,693,-606,-1497,-313,-44,160,-72,-160
0,353065,2460,693,-606,-1497,-313,-44,165,-69,-157
0,353072,2460,693,-606,-1497,-313,-44,165,-69,-157
0,353077,2460,693,-606,-1497,-313,-44,165,-69,-157
0,353083,2460,693,-606,-1497,-313,-44,165,-69,-157
0,353089,2460,693,-611,-1487,-317,-49,165,-69,-157
0,353095,2460,693,-611,-1487,-317,-49,165,-69,-157
0,353101,2460,693,-611,-1487,-317,-49,165,-69,-157
0,353107,2460,693,-612,-1495,-306,-49,165,-69,-157
0,353114,2460,693,-612,-1495,-306,-49,165,-69,-157
0,353119,2460,693,-612,-1495,-306,-49,165,-69,-157
0,353125,2460,691,-617,-1488,-309,-48,165,-69,-157
0,353130,2460,691,-617,-1488,-309,-48,165,-69,-157
0,353136,2460,691,-617,-1488,-309,-48,165,-69,-157
0,353141,2460,691,-617,-1488,-309,-48,165,-69,-157
0,353147,2460,694,-611,-1491,-312,-45,165,-69,-157
0,353153,2460,694,-611,-1491,-312,-45,165,-69,-157
0,353159,2460,694,-611,-1491,-312,-45,165,-69,-157
0,353164,2461,693,-617,-1488,-315,-52,165,-69,-157
0,353170,2461,693,-617,-1488,-315,-52,165,-69,-157
0,353175,2461,693,-617,-1488,-315,-52,165,-69,-157
0,353181,2461,693,-617,-1488,-315,-52,165,-69,-157
0,353187,2461,693,-607,-1489,-316,-48,159,-69,-149
0,353193,2461,693,-607,-1489,-316,-48,159,-69,-149
0,353199,2461,693,-607,-1489,-316,-48,159,-69,-149
0,353205,2460,693,-609,-1488,-308,-47,159,-69,-149
0,353211,2460,693,-609,-1488,-308,-47,159,-69,-149
0,353216,2460,693,-609,-1488,-308,-47,159,-69,-149
0,353221,2460,693,-609,-1488,-308,-47,159,-69,-149
0,353226,2460,694,-612,-1490,-314,-49,159,-69,-149
0,353232,2460,694,-612,-1490,-314,-49,159,-69,-149
0,353238,2460,694,-612,-1490,-314,-49,159,-69,-149
0,353244,2460,695,-603,-1492,-309,-42,159,-69,-149
0,353249,2460,695,-603,-1492,-309,-42,159,-69,-149
0,353255,2460,695,-603,-1492,-309,-42,159,-69,-149
0,353260,2460,695,-603,-1492,-309,-42,159,-69,-149
0,353265,2460,693,-609,-1491,-312,-48,159,-69,-149
0,353270,2460,693,-609,-1491,-312,-48,159,-69,-149
0,353276,2460,693,-609,-1491,-312,-48,159,-69,-149
0,353282,2460,693,-609,-1491,-312,-48,159,-69,-149
0,353287,2461,690,-613,-1494,-314,-48,159,-69,-149
0,353293,2461,690,-613,-1494,-314,-48,159,-69,-149
0,353297,2461,690,-613,-1494,-314,-48,159,-69,-149
0,353303,2461,690,-613,-1494,-314,-48,159,-69,-149
0,353308,2461,694,-606,-1487,-316,-45,155,-77,-159
0,353314,2461,694,-606,-1487,-316,-45,155,-77,-159
0,353319,2461,694,-606,-1487,-316,-45,155,-77,-159
0,353325,2460,693,-609,-1488,-312,-44,155,-77,-159
0,353330,2460,693,-609,-1488,-312,-44,155,-77,-159
0,353336,2460,693,-609,-1488,-312,-44,155,-77,-159
0,353341,2460,693,-609,-1488,-312,-44,155,-77,-159
0,353346,2459,694,-611,-1486,-313,-45,155,-77,-159
0,353351,2459,694,-611,-1486,-313,-45,155,-77,-159
0,353356,2459,694,-611,-1486,-313,-45,155,-77,-159
0,353362,2459,694,-611,-1486,-313,-45,155,-77,-159
0,353368,2461,693,-611,-1487,-319,-46,155,-77,-159
0,353374,2461,693,-611,-1487,-319,-46,155,-77,-159
0,353380,2461,693,-611,-1487,-319,-46,155,-77,-159
0,353386,2458,695,-611,-1484,-315,-51,155,-77,-159
0,353392,2458,695,-611,-1484,-315,-51,155,-77,-159
0,353398,2458,695,-611,-1484,-315,-51,155,-77,-159
0,353404,2458,692,-608,-1485,-312,-50,155,-77,-159
0,353411,2458,692,-608,-1485,-312,-50,155,-77,-159
0,353416,2458,692,-608,-1485,-312,-50,155,-77,-159
0,353422,2458,692,-608,-1485,-312,-50,155,-77,-159
0,353427,2459,690,-607,-1493,-314,-45,159,-71,-163
0,353432,2459,690,-607,-1493,-314,-45,159,-71,-163
0,353438,2459,690,-607,-1493,-314,-45,159,-71,-163
0,353446,2458,695,-603,-1488,-312,-42,159,-71,-163
0,353453,2458,695,-603,-1488,-312,-42,159,-71,-163
0,353460,2458,695,-603,-1488,-312,-42,159,-71,-163
0,353466,2461,691,-608,-1484,-311,-42,159,-71,-163
0,353472,2461,691,-608,-1484,-311,-42,159,-71,-163
0,353478,2461,691,-608,-1484,-311,-42,159,-71,-163
0,353483,2456,690,-609,-1484,-312,-51,159,-71,-163
0,353490,2456,690,-609,-1484,-312,-51,159,-71,-163
0,353497,2456,690,-609,-1484,-312,-51,159,-71,-163
0,353502,2456,690,-609,-1484,-312,-51,159,-71,-163
0,353507,2458,692,-609,-1485,-311,-44,159,-71,-163
0,353512,2458,692,-609,-1485,-311,-44,159,-71,-163
0,353518,2458,692,-609,-1485,-311,-44,159,-71,-163
0,353523,2458,692,-609,-1485,-311,-44,159,-71,-163
0,353529,2460,694,-610,-1493,-317,-36,159,-71,-163
0,353533,2460,694,-610,-1493,-317,-36,159,-71,-163
0,353540,2460,694,-610,-1493,-317,-36,159,-71,-163
0,353546,2460,692,-609,-1484,-318,-46,159,-71,-163
0,353552,2460,692,-609,-1484,-318,-46,159,-71,-163
0,353558,2460,692,-609,-1484,-318,-46,159,-71,-163
0,353563,2460,692,-609,-1484,-318,-46,159,-71,-163
0,353568,2461,692,-604,-1491,-314,-42,156,-70,-160
0,353573,2461,692,-604,-1491,-314,-42,156,-70,-160
0,353580,2461,692,-604,-1491,-314,-42,156,-70,-160
0,353586,2461,694,-610,-1487,-315,-48,156,-70,-160
0,353591,2461,694,-610,-1487,-315,-48,156,-70,-160
0,353597,2461,694,-610,-1487,-315,-48,156,-70,-160
0,353603,2461,694,-610,-1487,-315,-48,156,-70,-160
0,353608,2462,693,-613,-1485,-315,-46,156,-70,-160
0,353614,2462,693,-613,-1485,-315,-46,156,-70,-160
0,353620,2462,693,-613,-1485,-315,-46,156,-70,-160
0,353627,2461,691,-612,-1494,-314,-44,156,-70,-160
0,353633,2461,691,-612,-1494,-314,-44,156,-70,-160
0,353639,2461,691,-612,-1494,-314,-44,156,-70,-160
0,353645,2460,694,-609,-1498,-315,-47,156,-70,-160
0,353651,2460,694,-609,-1498,-315,-47,156,-70,-160
0,353657,2460,694,-609,-1498,-315,-47,156,-70,-160
0,353662,2460,694,-609,-1498,-315,-47,156,-70,-160
0,353668,2460,692,-608,-1490,-308,-47,156,-70,-160
0,353674,2460,692,-608,-1490,-308,-47,156,-70,-160
0,353679,2460,692,-608,-1490,-308,-47,156,-70,-160
0,353684,2459,693,-606,-1489,-316,-45,152,-76,-152
0,353690,2459,693,-606,-1489,-316,-45,152,-76,-152
0,353696,2459,693,-606,-1489,-316,-45,152,-76,-152
0,353702,2459,693,-606,-1489,-316,-45,152,-76,-152
0,353709,2461,694,-606,-1490,-309,-47,152,-76,-152
0,353715,2461,694,-606,-1490,-309,-47,152,-76,-152
0,353722,2461,694,-606,-1490,-309,-47,152,-76,-152
0,353728,2464,693,-607,-1490,-309,-37,152,-76,-152
0,353734,2464,693,-607,-1490,-309,-37,152,-76,-152
0,353740,2464,693,-607,-1490,-309,-37,152,-76,-152
0,353745,2460,690,-615,-1486,-313,-43,152,-76,-152
0,353752,2460,690,-615,-1486,-313,-43,152,-76,-152
0,353759,2460,690,-615,-1486,-313,-43,152,-76,-152
0,353765,2461,692,-609,-1482,-308,-43,152,-76,-152
0,353771,2461,692,-609,-1482,-308,-43,152,-76,-152
0,353776,2461,692,-609,-1482,-308,-43,152,-76,-152
0,353781,2461,692,-609,-1482,-308,-43,152,-76,-152
0,353787,2459,693,-608,-1489,-316,-42,152,-76,-152
0,353793,2459,693,-608,-1489,-316,-42,152,-76,-152
0,353799,2459,693,-608,-1489,-316,-42,152,-76,-152
0,353805,2462,694,-604,-1487,-311,-48,159,-81,-159
0,353811,2462,694,-604,-1487,-311,-48,159,-81,-159
0,353817,2462,694,-604,-1487,-311,-48,159,-81,-159
0,353823,2462,694,-604,-1487,-311,-48,159,-81,-159
0,353829,2459,692,-608,-1488,-317,-39,159,-81,-159
0,353836,2459,692,-608,-1488,-317,-39,159,-81,-159
0,353842,2459,692,-608,-1488,-317,-39,159,-81,-159
0,353848,2460,691,-608,-1491,-312,-48,159,-81,-159
0,353854,2460,691,-608,-1491,-312,-48,159,-81,-159
0,353860,2460,691,-608,-1491,-312,-48,159,-81,-159
0,353865,2461,693,-610,-1484,-313,-51,159,-81,-159
0,353872,2461,693,-610,-1484,-313,-51,159,-81,-159
0,353878,2461,693,-610,-1484,-313,-51,159,-81,-159
0,353884,2461,693,-608,-1490,-315,-46,159,-81,-159
0,353891,2461,693,-608,-1490,-315,-46,159,-81,-159
0,353896,2461,693,-608,-1490,-315,-46,159,-81,-159
0,353902,2461,693,-608,-1490,-315,-46,159,-81,-159
0,353908,2461,693,-614,-1489,-311,-41,159,-81,-159
0,353913,2461,693,-614,-1489,-311,-41,159,-81,-159
0,353920,2461,693,-614,-1489,-311,-41,159,-81,-159
0,353925,2463,693,-606,-1485,-312,-48,170,-68,-162
0,353931,2463,693,-606,-1485,-312,-48,170,-68,-162
0,353936,2463,693,-606,-1485,-312,-48,170,-68,-162
0,353942,2463,693,-606,-1485,-312,-48,170,-68,-162
0,353947,2459,692,-606,-1486,-314,-47,170,-68,-162
0,353952,2459,692,-606,-1486,-314,-47,170,-68,-162
0,353958,2459,692,-606,-1486,-314,-47,170,-68,-162
0,353964,2458,693,-611,-1490,-312,-51,170,-68,-162
0,353970,2458,693,-611,-1490,-312,-51,170,-68,-162
0,353975,2458,693,-611,-1490,-312,-51,170,-68,-162
0,353981,2458,693,-611,-1490,-312,-51,170,-68,-162
0,353986,2461,691,-614,-1492,-315,-50,170,-68,-162
0,353991,2461,691,-614,-1492,-315,-50,170,-68,-162
0,353996,2461,691,-614,-1492,-315,-50,170,-68,-162
0,354002,2461,691,-614,-1492,-315,-50,170,-68,-162
0,354008,2461,694,-607,-1489,-321,-44,170,-68,-162
0,354014,2461,694,-607,-1489,-321,-44,170,-68,-162
0,354019,2461,694,-607,-1489,-321,-44,170,-68,-162
0,354025,2459,692,-608,-1488,-318,-48,170,-68,-162
0,354030,2459,692,-608,-1488,-318,-48,170,-68,-162
0,354035,2459,692,-608,-1488,-318,-48,170,-68,-162
0,354041,2459,692,-608,-1488,-318,-48,170,-68,-162
0,354046,2460,694,-615,-1489,-314,-44,158,-66,-160
0,354053,2460,694,-615,-1489,-314,-44,158,-66,-160
0,354059,2460,694,-615,-1489,-314,-44,158,-66,-160
0,354065,2462,695,-604,-1492,-318,-47,158,-66,-160
0,354071,2462,695,-604,-1492,-318,-47,158,-66,-160
0,354076,2462,695,-604,-1492,-318,-47,158,-66,-160
0,354083,2462,695,-604,-1492,-318,-47,158,-66,-160
0,354087,2462,695,-610,-1486,-316,-44,158,-66,-160
0,354094,2462,695,-610,-1486,-316,-44,158,-66,-160
0,354099,2462,695,-610,-1486,-316,-44,158,-66,-160
0,354104,2460,691,-614,-1494,-313,-46,158,-66,-160
0,354109,2460,691,-614,-1494,-313,-46,158,-66,-160
0,354114,2460,691,-614,-1494,-313,-46,158,-66,-160
0,354119,2460,691,-614,-1494,-313,-46,158,-66,-160
0,354124,2461,693,-607,-1488,-317,-41,158,-66,-160
0,354131,2461,693,-607,-1488,-317,-41,158,-66,-160
0,354138,2461,693,-607,-1488,-317,-41,158,-66,-160
0,354143,2461,693,-607,-1488,-317,-41,158,-66,-160
0,354149,2459,691,-613,-1494,-313,-40,158,-66,-160
0,354155,2459,691,-613,-1494,-313,-40,158,-66,-160
0,354161,2459,691,-613,-1494,-313,-40,158,-66,-160
0,354167,2464,693,-610,-1488,-314,-38,158,-66,-160
0,354173,2464,693,-610,-1488,-314,-38,158,-66,-160
0,354180,2464,693,-610,-1488,-314,-38,158,-66,-160
0,354186,2459,693,-610,-1498,-314,-46,161,-73,-159
0,354192,2459,693,-610,-1498,-314,-46,161,-73,-159
0,354198,2459,693,-610,-1498,-314,-46,161,-73,-159
0,354203,2459,693,-610,-1498,-314,-46,161,-73,-159
0,354209,2459,694,-606,-1490,-312,-46,161,-73,-159
0,354214,2459,694,-606,-1490,-312,-46,161,-73,-159
0,354221,2459,694,-606,-1490,-312,-46,161,-73,-159
0,354227,2458,695,-613,-1487,-315,-40,161,-73,-159
0,354232,2458,695,-613,-1487,-315,-40,161,-73,-159
0,354238,2458,695,-613,-1487,-315,-40,161,-73,-159
0,354245,2460,692,-611,-1481,-318,-47,161,-73,-159
0,354251,2460,692,-611,-1481,-318,-47,161,-73,-159
0,354256,2460,692,-611,-1481,-318,-47,161,-73,-159
0,354263,2460,692,-611,-1481,-318,-47,161,-73,-159
0,354268,2458,693,-614,-1484,-320,-44,161,-73,-159
0,354274,2458,693,-614,-1484,-320,-44,161,-73,-159
0,354280,2458,693,-614,-1484,-320,-44,161,-73,-159
0,354285,2456,692,-612,-1482,-315,-36,161,-73,-159
0,354291,2456,692,-612,-1482,-315,-36,161,-73,-159
0,354296,2456,692,-612,-1482,-315,-36,161,-73,-159
0,354302,2456,692,-612,-1482,-315,-36,161,-73,-159
0,354307,2461,693,-608,-1482,-309,-49,159,-69,-157
0,354314,2461,693,-608,-1482,-309,-49,159,-69,-157
0,354320,2461,693,-608,-1482,-309,-49,159,-69,-157
0,354325,2461,694,-609,-1486,-313,-47,159,-69,-157
0,354330,2461,694,-609,-1486,-313,-47,159,-69,-157
0,354336,2461,694,-609,-1486,-313,-47,159,-69,-157
0,354341,2461,694,-609,-1486,-313,-47,159,-69,-157
0,354347,2461,693,-610,-1485,-318,-45,159,-69,-157
0,354353,2461,693,-610,-1485,-318,-45,159,-69,-157
0,354358,2461,693,-610,-1485,-318,-45,159,-69,-157
0,354364,2461,693,-610,-1485,-318,-45,159,-69,-157
0,354368,2462,692,-611,-1491,-316,-46,159,-69,-157
0,354373,2462,692,-611,-1491,-316,-46,159,-69,-157
0,354379,2462,692,-611,-1491,-316,-46,159,-69,-157
0,354385,2458,691,-607,-1492,-315,-45,159,-69,-157
0,354391,2458,691,-607,-1492,-315,-45,159,-69,-157
0,354397,2458,691,-607,-1492,-315,-45,159,-69,-157
0,354402,2458,691,-607,-1492,-315,-45,159,-69,-157
0,354407,2462,692,-609,-1490,-314,-47,159,-69,-157
0,354413,2462,692,-609,-1490,-314,-47,159,-69,-157
0,354418,2462,692,-609,-1490,-314,-47,159,-69,-157
0,354424,2459,694,-608,-1492,-309,-39,153,-73,-157
0,354429,2459,694,-608,-1492,-309,-39,153,-73,-157
0,354436,2459,694,-608,-1492,-309,-39,153,-73,-157
0,354442,2459,694,-608,-1492,-309,-39,153,-73,-157
0,354447,2455,693,-610,-1489,-313,-38,153,-73,-157
0,354453,2455,693,-610,-1489,-313,-38,153,-73,-157
0,354459,2455,693,-610,-1489,-313,-38,153,-73,-157
0,354464,2459,693,-606,-1486,-310,-41,153,-73,-157
0,354469,2459,693,-606,-1486,-310,-41,153,-73,-157
0,354476,2459,693,-606,-1486,-310,-41,153,-73,-157
0,354482,2459,693,-606,-1486,-310,-41,153,-73,-157
0,354488,2460,693,-608,-1490,-306,-43,153,-73,-157
0,354493,2460,693,-608,-1490,-306,-43,153,-73,-157
0,354500,2460,693,-608,-1490,-306,-43,153,-73,-157
0,354506,2463,694,-615,-1490,-315,-46,153,-73,-157
0,354512,2463,694,-615,-1490,-315,-46,153,-73,-157
0,354518,2463,694,-615,-1490,-315,-46,153,-73,-157
0,354524,2463,694,-615,-1490,-315,-46,153,-73,-157
0,354530,2463,693,-608,-1490,-314,-43,153,-73,-157
0,354536,2463,693,-608,-1490,-314,-43,153,-73,-157
0,354541,2463,693,-608,-1490,-314,-43,153,-73,-157
0,354547,2459,692,-606,-1491,-316,-47,155,-71,-153
0,354552,2459,692,-606,-1491,-316,-47,155,-71,-153
0,354557,2459,692,-606,-1491,-316,-47,155,-71,-153
0,354564,2459,692,-606,-1491,-316,-47,155,-71,-153
0,354569,2458,694,-609,-1490,-316,-43,155,-71,-153
0,354575,2458,694,-609,-1490,-316,-43,155,-71,-153
0,354581,2458,694,-609,-1490,-316,-43,155,-71,-153
0,354586,2458,694,-609,-1490,-316,-43,155,-71,-153
0,354591,2458,694,-609,-1490,-316,-43,155,-71,-153
0,354596,2458,694,-609,-1490,-316,-43,155,-71,-153
0,354603,2458,694,-609,-1490,-316,-43,155,-71,-153
0,354608,2458,694,-617,-1488,-312,-44,155,-71,-153
0,354613,2458,694,-617,-1488,-312,-44,155,-71,-153
0,354619,2458,694,-617,-1488,-312,-44,155,-71,-153
0,354624,2460,692,-609,-1494,-315,-40,155,-71,-153
0,354629,2460,692,-609,-1494,-315,-40,155,-71,-153
0,354635,2460,692,-609,-1494,-315,-40,155,-71,-153
0,354640,2460,692,-609,-1494,-315,-40,155,-71,-153
0,354646,2462,692,-613,-1492,-307,-34,155,-71,-153
0,354652,2462,692,-613,-1492,-307,-34,155,-71,-153
0,354657,2462,692,-613,-1492,-307,-34,155,-71,-153
0,354663,2462,692,-613,-1492,-307,-34,155,-71,-153
0,354668,2459,693,-613,-1490,-304,-45,160,-82,-160
0,354673,2459,693,-613,-1490,-304,-45,160,-82,-160
0,354679,2459,693,-613,-1490,-304,-45,160,-82,-160
0,354685,2464,691,-612,-1484,-314,-43,160,-82,-160
0,354691,2464,691,-612,-1484,-314,-43,160,-82,-160
0,354697,2464,691,-612,-1484,-314,-43,160,-82,-160
0,354702,2464,691,-612,-1484,-314,-43,160,-82,-160
0,354708,2460,691,-614,-1492,-315,-38,160,-82,-160
0,354713,2460,691,-614,-1492,-315,-38,160,-82,-160
0,354719,2460,691,-614,-1492,-315,-38,160,-82,-160
0,354724,2458,690,-609,-1489,-315,-42,160,-82,-160
0,354731,2458,690,-609,-1489,-315,-42,160,-82,-160
0,354735,2458,690,-609,-1489,-315,-42,160,-82,-160
0,354741,2458,690,-609,-1489,-315,-42,160,-82,-160
0,354747,2461,691,-609,-1484,-314,-48,160,-82,-160
0,354753,2461,691,-609,-1484,-314,-48,160,-82,-160
0,354758,2461,691,-609,-1484,-314,-48,160,-82,-160
0,354763,2461,691,-609,-1484,-314,-48,160,-82,-160
0,354768,2460,692,-612,-1487,-312,-44,160,-82,-160
0,354774,2460,692,-612,-1487,-312,-44,160,-82,-160
0,354779,2460,692,-612,-1487,-312,-44,160,-82,-160
0,354784,2460,693,-613,-1479,-311,-39,160,-82,-160
0,354790,2460,693,-613,-1479,-311,-39,160,-82,-160
0,354795,2460,693,-613,-1479,-311,-39,160,-82,-160
0,354800,2460,693,-613,-1479,-311,-39,160,-82,-160
0,354805,2462,691,-607,-1492,-310,-44,157,-71,-149
0,354810,2462,691,-607,-1492,-310,-44,157,-71,-149
0,354817,2462,691,-607,-1492,-310,-44,157,-71,-149
0,354821,2462,691,-607,-1492,-310,-44,157,-71,-149
0,354827,2458,691,-609,-1494,-310,-47,157,-71,-149
0,354833,2458,691,-609,-1494,-310,-47,157,-71,-149
0,354838,2458,691,-609,-1494,-310,-47,157,-71,-149
0,354843,2458,691,-609,-1494,-310,-47,157,-71,-149
0,354849,2462,693,-612,-1482,-307,-45,157,-71,-149
0,354854,2462,693,-612,-1482,-307,-45,157,-71,-149
0,354861,2462,693,-612,-1482,-307,-45,157,-71,-149
0,354865,2461,693,-612,-1492,-316,-51,157,-71,-149
0,354871,2461,693,-612,-1492,-316,-51,157,-71,-149
0,354877,2461,693,-612,-1492,-316,-51,157,-71,-149
0,354882,2461,693,-612,-1492,-316,-51,157,-71,-149
0,354887,2462,692,-611,-1494,-310,-31,157,-71,-149
0,354893,2462,692,-611,-1494,-310,-31,157,-71,-149
0,354898,2462,692,-611,-1494,-310,-31,157,-71,-149
0,354905,2462,693,-613,-1489,-308,-44,157,-71,-149
0,354910,2462,693,-613,-1489,-308,-44,157,-71,-149
0,354915,2462,693,-613,-1489,-308,-44,157,-71,-149
0,354920,2462,693,-613,-1489,-308,-44,157,-71,-149
0,354926,2460,695,-609,-1486,-316,-45,155,-67,-161
0,354931,2460,695,-609,-1486,-316,-45,155,-67,-161
0,354937,2460,695,-609,-1486,-316,-45,155,-67,-161
0,354942,2460,695,-609,-1486,-316,-45,155,-67,-161
0,354948,2460,695,-609,-1486,-316,-45,155,-67,-161
0,354955,2460,695,-609,-1486,-316,-45,155,-67,-161
0,354962,2460,695,-609,-1486,-316,-45,155,-67,-161
0,354968,2461,691,-607,-1485,-309,-39,155,-67,-161
0,354973,2461,691,-607,-1485,-309,-39,155,-67,-161
0,354978,2461,691,-607,-1485,-309,-39,155,-67,-161
0,354983,2461,691,-607,-1485,-309,-39,155,-67,-161
0,354990,2462,695,-611,-1487,-311,-44,155,-67,-161
0,354995,2462,695,-611,-1487,-311,-44,155,-67,-161
0,355001,2462,695,-611,-1487,-311,-44,155,-67,-161
0,355006,2459,692,-608,-1481,-313,-45,155,-67,-161
0,355012,2459,692,-608,-1481,-313,-45,155,-67,-161
0,355018,2459,692,-608,-1481,-313,-45,155,-67,-161
0,355023,2459,692,-608,-1481,-313,-45,155,-67,-161
0,355030,2461,691,-607,-1488,-316,-42,155,-67,-161
0,355035,2461,691,-607,-1488,-316,-42,155,-67,-161
0,355040,2461,691,-607,-1488,-316,-42,155,-67,-161
0,355046,2460,692,-604,-1486,-319,-44,160,-70,-154
0,355051,2460,692,-604,-1486,-319,-44,160,-70,-154
0,355056,2460,692,-604,-1486,-319,-44,160,-70,-154
0,355062,2460,692,-604,-1486,-319,-44,160,-70,-154
0,355067,2461,693,-610,-1485,-309,-35,160,-70,-154
0,355074,2461,693,-610,-1485,-309,-35,160,-70,-154
0,355078,2461,693,-610,-1485,-309,-35,160,-70,-154
0,355084,2461,693,-610,-1485,-309,-35,160,-70,-154
0,355090,2463,691,-608,-1487,-315,-40,160,-70,-154
0,355095,2463,691,-608,-1487,-315,-40,160,-70,-154
0,355100,2463,691,-608,-1487,-315,-40,160,-70,-154
0,355106,2462,694,-609,-1493,-315,-40,160,-70,-154
0,355111,2462,694,-609,-1493,-315,-40,160,-70,-154
0,355117,2462,694,-609,-1493,-315,-40,160,-70,-154
0,355122,2462,694,-609,-1493,-315,-40,160,-70,-154
0,355127,2461,692,-613,-1491,-312,-42,160,-70,-154
0,355132,2461,692,-613,-1491,-312,-42,160,-70,-154
0,355137,2461,692,-613,-1491,-312,-42,160,-70,-154
0,355142,2461,692,-613,-1491,-312,-42,160,-70,-154
0,355148,2463,694,-610,-1485,-317,-42,160,-70,-154
0,355153,2463,694,-610,-1485,-317,-42,160,-70,-154
0,355160,2463,694,-610,-1485,-317,-42,160,-70,-154
0,355165,2462,693,-603,-1490,-310,-49,156,-64,-156
0,355170,2462,693,-603,-1490,-310,-49,156,-64,-156
0,355176,2462,693,-603,-1490,-310,-49,156,-64,-156
0,355181,2462,693,-603,-1490,-310,-49,156,-64,-156
0,355186,2461,695,-603,-1493,-311,-44,156,-64,-156
0,355192,2461,695,-603,-1493,-311,-44,156,-64,-156
0,355197,2461,695,-603,-1493,-311,-44,156,-64,-156
0,355204,2461,695,-603,-1493,-311,-44,156,-64,-156
0,355209,2460,690,-609,-1486,-310,-44,156,-64,-156
0,355214,2460,690,-609,-1486,-310,-44,156,-64,-156
0,355220,2460,690,-609,-1486,-310,-44,156,-64,-156
0,355225,2461,691,-611,-1481,-306,-35,156,-64,-156
0,355230,2461,691,-611,-1481,-306,-35,156,-64,-156
0,355235,2461,691,-611,-1481,-306,-35,156,-64,-156
0,355240,2461,691,-611,-1481,-306,-35,156,-64,-156
0,355246,2460,692,-609,-1485,-311,-47,156,-64,-156
0,355251,2460,692,-609,-1485,-311,-47,156,-64,-156
0,355257,2460,692,-609,-1485,-311,-47,156,-64,-156
0,355262,2460,692,-609,-1485,-311,-47,156,-64,-156
0,355268,2460,694,-609,-1491,-315,-45,156,-64,-156
0,355273,2460,694,-609,-1491,-315,-45,156,-64,-156
0,355279,2460,694,-609,-1491,-315,-45,156,-64,-156
0,355284,2458,694,-609,-1488,-309,-47,156,-64,-156
0,355290,2458,694,-609,-1488,-309,-47,156,-64,-156
0,355295,2458,694,-609,-1488,-309,-47,156,-64,-156
0,355301,2458,694,-609,-1488,-309,-47,156,-64,-156
0,355306,2460,695,-609,-1488,-312,-43,156,-64,-156
0,355312,2460,695,-609,-1488,-312,-43,156,-64,-156
0,355317,2460,695,-609,-1488,-312,-43,156,-64,-156
0,355323,2460,695,-609,-1488,-312,-43,156,-64,-156
0,355329,2458,694,-609,-1497,-313,-53,156,-64,-156
0,355335,2458,694,-609,-1497,-313,-53,156,-64,-156
0,355339,2458,694,-609,-1497,-313,-53,156,-64,-156
0,355345,2461,692,-612,-1488,-313,-41,156,-64,-156
0,355351,2461,692,-612,-1488,-313,-41,156,-64,-156
0,355356,2461,692,-612,-1488,-313,-41,156,-64,-156
0,355361,2461,692,-612,-1488,-313,-41,156,-64,-156
0,355367,2462,692,-611,-1491,-310,-49,156,-64,-156
0,355372,2462,692,-611,-1491,-310,-49,156,-64,-156
0,355377,2462,692,-611,-1491,-310,-49,156,-64,-156
0,355383,2462,692,-611,-1491,-310,-49,156,-64,-156
0,355388,2461,690,-610,-1486,-316,-47,156,-64,-156
0,355393,2461,690,-610,-1486,-316,-47,156,-64,-156
0,355399,2461,690,-610,-1486,-316,-47,156,-64,-156
0,355404,2462,693,-609,-1484,-305,-43,156,-64,-156
0,355409,2462,693,-609,-1484,-305,-43,156,-64,-156
0,355416,2462,693,-609,-1484,-305,-43,156,-64,-156
0,355421,2462,693,-609,-1484,-305,-43,156,-64,-156
0,355426,2458,694,-607,-1489,-313,-53,152,-84,-160
0,355432,2458,694,-607,-1489,-313,-53,152,-84,-160
0,355437,2458,694,-607,-1489,-313,-53,152,-84,-160
0,355442,2458,694,-607,-1489,-313,-53,152,-84,-160
0,355448,2461,692,-608,-1483,-316,-49,152,-84,-160
0,355453,2461,692,-608,-1483,-316,-49,152,-84,-160
0,355460,2461,692,-608,-1483,-316,-49,152,-84,-160
0,355464,2461,692,-610,-1494,-314,-43,152,-84,-160
0,355470,2461,692,-610,-1494,-314,-43,152,-84,-160
0,355476,2461,692,-610,-1494,-314,-43,152,-84,-160
0,355481,2461,692,-610,-1494,-314,-43,152,-84,-160
0,355486,2462,694,-612,-1492,-311,-49,152,-84,-160
0,355492,2462,694,-612,-1492,-311,-49,152,-84,-160
0,355497,2462,694,-612,-1492,-311,-49,152,-84,-160
0,355503,2462,694,-612,-1492,-311,-49,152,-84,-160
0,355508,2460,692,-607,-1487,-307,-50,152,-84,-160
0,355514,2460,692,-607,-1487,-307,-50,152,-84,-160
0,355519,2460,692,-607,-1487,-307,-50,152,-84,-160
0,355525,2460,694,-612,-1489,-310,-48,152,-84,-160
0,355530,2460,694,-612,-1489,-310,-48,152,-84,-160
0,355536,2460,694,-612,-1489,-310,-48,152,-84,-160
0,355542,2460,694,-612,-1489,-310,-48,152,-84,-160
0,355547,2459,692,-607,-1484,-312,-48,155,-77,-161
0,355552,2459,692,-607,-1484,-312,-48,155,-77,-161
0,355558,2459,692,-607,-1484,-312,-48,155,-77,-161
0,355563,2459,692,-607,-1484,-312,-48,155,-77,-161
0,355569,2459,695,-603,-1494,-311,-51,155,-77,-161
0,355574,2459,695,-603,-1494,-311,-51,155,-77,-161
0,355580,2459,695,-603,-1494,-311,-51,155,-77,-161
0,355586,2459,692,-610,-1495,-313,-41,155,-77,-161
0,355591,2459,692,-610,-1495,-313,-41,155,-77,-161
0,355596,2459,692,-610,-1495,-313,-41,155,-77,-161
0,355602,2459,692,-610,-1495,-313,-41,155,-77,-161
0,355608,2459,692,-610,-1495,-313,-41,155,-77,-161
0,355613,2459,692,-610,-1495,-313,-41,155,-77,-161
0,355619,2459,692,-610,-1495,-313,-41,155,-77,-161
0,355623,2459,692,-610,-1495,-313,-41,155,-77,-161
0,355630,2461,693,-608,-1490,-312,-46,155,-77,-161
0,355635,2461,693,-608,-1490,-312,-46,155,-77,-161
0,355640,2461,693,-608,-1490,-312,-46,155,-77,-161
0,355646,2460,693,-609,-1489,-316,-48,155,-77,-161
0,355651,2460,693,-609,-1489,-316,-48,155,-77,-161
0,355657,2460,693,-609,-1489,-316,-48,155,-77,-161
0,355662,2460,693,-609,-1489,-316,-48,155,-77,-161
0,355667,2459,695,-608,-1487,-315,-47,156,-74,-154
0,355673,2459,695,-608,-1487,-315,-47,156,-74,-154
0,355679,2459,695,-608,-1487,-315,-47,156,-74,-154
0,355684,2459,695,-608,-1487,-315,-47,156,-74,-154
0,355689,2458,696,-607,-1485,-314,-42,156,-74,-154
0,355694,2458,696,-607,-1485,-314,-42,156,-74,-154
0,355700,2458,696,-607,-1485,-314,-42,156,-74,-154
0,355705,2459,693,-610,-1486,-310,-48,156,-74,-154
0,355712,2459,693,-610,-1486,-310,-48,156,-74,-154
0,355717,2459,693,-610,-1486,-310,-48,156,-74,-154
0,355723,2459,693,-610,-1486,-310,-48,156,-74,-154
0,355728,2460,694,-608,-1486,-313,-39,156,-74,-154
0,355733,2460,694,-608,-1486,-313,-39,156,-74,-154
0,355738,2460,694,-608,-1486,-313,-39,156,-74,-154
0,355743,2460,694,-608,-1486,-313,-39,156,-74,-154
0,355748,2463,693,-610,-1488,-313,-41,156,-74,-154
0,355753,2463,693,-610,-1488,-313,-41,156,-74,-154
0,355760,2463,693,-610,-1488,-313,-41,156,-74,-154
0,355765,2457,693,-610,-1489,-314,-37,156,-74,-154
0,355770,2457,693,-610,-1489,-314,-37,156,-74,-154
0,355776,2457,693,-610,-1489,-314,-37,156,-74,-154
0,355781,2457,693,-610,-1489,-314,-37,156,-74,-154
0,355786,2458,692,-611,-1487,-312,-44,153,-77,-153
0,355791,2458,692,-611,-1487,-312,-44,153,-77,-153
0,355796,2458,692,-611,-1487,-312,-44,153,-77,-153
0,355803,2458,692,-611,-1487,-312,-44,153,-77,-153
0,355808,2458,694,-604,-1490,-316,-46,153,-77,-153
0,355813,2458,694,-604,-1490,-316,-46,153,-77,-153
0,355818,2458,694,-604,-1490,-316,-46,153,-77,-153
0,355823,2458,694,-604,-1490,-316,-46,153,-77,-153
0,355828,2461,693,-608,-1482,-313,-44,153,-77,-153
0,355834,2461,693,-608,-1482,-313,-44,153,-77,-153
0,355840,2461,693,-608,-1482,-313,-44,153,-77,-153
0,355846,2461,690,-607,-1486,-309,-43,153,-77,-153
0,355850,2461,690,-607,-1486,-309,-43,153,-77,-153
0,355856,2461,690,-607,-1486,-309,-43,153,-77,-153
0,355862,2461,690,-607,-1486,-309,-43,153,-77,-153
0,355867,2462,692,-609,-1493,-310,-46,153,-77,-153
0,355872,2462,692,-609,-1493,-310,-46,153,-77,-153
0,355878,2462,692,-609,-1493,-310,-46,153,-77,-153
0,355884,2462,692,-609,-1493,-310,-46,153,-77,-153
0,355889,2458,691,-608,-1491,-312,-42,153,-77,-153
0,355893,2458,691,-608,-1491,-312,-42,153,-77,-153
0,355898,2458,691,-608,-1491,-312,-42,153,-77,-153
0,355903,2458,691,-608,-1491,-312,-42,153,-77,-153
0,355908,2460,693,-607,-1481,-317,-38,153,-77,-153
0,355913,2460,693,-607,-1481,-317,-38,153,-77,-153
0,355918,2460,693,-607,-1481,-317,-38,153,-77,-153
0,355922,2460,693,-607,-1481,-317,-38,153,-77,-153
0,355927,2461,695,-608,-1483,-308,-48,159,-69,-153
0,355933,2461,695,-608,-1483,-308,-48,159,-69,-153
0,355938,2461,695,-608,-1483,-308,-48,159,-69,-153
0,355942,2461,695,-608,-1483,-308,-48,159,-69,-153
0,355948,2459,693,-610,-1487,-318,-42,159,-69,-153
0,355954,2459,693,-610,-1487,-318,-42,159,-69,-153
0,355959,2459,693,-610,-1487,-318,-42,159,-69,-153
0,355964,2463,696,-611,-1496,-319,-39,159,-69,-153
0,355971,2463,696,-611,-1496,-319,-39,159,-69,-153
0,355976,2463,696,-611,-1496,-319,-39,159,-69,-153
0,355981,2463,696,-611,-1496,-319,-39,159,-69,-153
0,355987,2461,696,-614,-1489,-320,-44,159,-69,-153
0,355992,2461,696,-614,-1489,-320,-44,159,-69,-153
0,355997,2461,696,-614,-1489,-320,-44,159,-69,-153
0,356003,2461,696,-614,-1489,-320,-44,159,-69,-153
0,356008,2460,690,-608,-1483,-322,-45,159,-69,-153
0,356014,2460,690,-608,-1483,-322,-45,159,-69,-153
0,356019,2460,690,-608,-1483,-322,-45,159,-69,-153
0,356025,2458,692,-608,-1485,-320,-47,159,-69,-153
0,356031,2458,692,-608,-1485,-320,-47,159,-69,-153
0,356036,2458,692,-608,-1485,-320,-47,159,-69,-153
0,356041,2458,692,-608,-1485,-320,-47,159,-69,-153
0,356046,2461,693,-604,-1490,-323,-40,163,-71,-161
0,356051,2461,693,-604,-1490,-323,-40,163,-71,-161
0,356058,2461,693,-604,-1490,-323,-40,163,-71,-161
0,356063,2461,693,-604,-1490,-323,-40,163,-71,-161
0,356069,2459,690,-610,-1487,-318,-41,163,-71,-161
0,356074,2459,690,-610,-1487,-318,-41,163,-71,-161
0,356080,2459,690,-610,-1487,-318,-41,163,-71,-161
0,356085,2459,693,-611,-1489,-318,-46,163,-71,-161
0,356091,2459,693,-611,-1489,-318,-46,163,-71,-161
0,356097,2459,693,-611,-1489,-318,-46,163,-71,-161
0,356103,2459,693,-611,-1489,-318,-46,163,-71,-161
0,356109,2464,693,-616,-1490,-317,-44,163,-71,-161
0,356114,2464,693,-616,-1490,-317,-44,163,-71,-161
0,356119,2464,693,-616,-1490,-317,-44,163,-71,-161
0,356124,2464,693,-616,-1490,-317,-44,163,-71,-161
0,356129,2459,691,-610,-1490,-322,-42,163,-71,-161
0,356134,2459,691,-610,-1490,-322,-42,163,-71,-161
0,356141,2459,691,-610,-1490,-322,-42,163,-71,-161
0,356146,2458,693,-615,-1491,-312,-39,163,-71,-161
0,356151,2458,693,-615,-1491,-312,-39,163,-71,-161
0,356157,2458,693,-615,-1491,-312,-39,163,-71,-161
0,356163,2458,693,-615,-1491,-312,-39,163,-71,-161
0,356168,2458,696,-612,-1489,-308,-38,153,-69,-153
0,356173,2458,696,-612,-1489,-308,-38,153,-69,-153
0,356178,2458,696,-612,-1489,-308,-38,153,-69,-153
0,356184,2458,696,-612,-1489,-308,-38,153,-69,-153
0,356190,2459,695,-606,-1487,-310,-42,153,-69,-153
0,356195,2459,695,-606,-1487,-310,-42,153,-69,-153
0,356201,2459,695,-606,-1487,-310,-42,153,-69,-153
0,356206,2457,691,-611,-1493,-318,-49,153,-69,-153
0,356212,2457,691,-611,-1493,-318,-49,153,-69,-153
0,356217,2457,691,-611,-1493,-318,-49,153,-69,-153
0,356222,2457,691,-611,-1493,-318,-49,153,-69,-153
0,356229,2461,690,-609,-1492,-313,-42,153,-69,-153
0,356234,2461,690,-609,-1492,-313,-42,153,-69,-153
0,356240,2461,690,-609,-1492,-313,-42,153,-69,-153
0,356245,2459,693,-612,-1492,-310,-47,153,-69,-153
0,356250,2459,693,-612,-1492,-310,-47,153,-69,-153
0,356255,2459,693,-612,-1492,-310,-47,153,-69,-153
0,356260,2459,693,-612,-1492,-310,-47,153,-69,-153
0,356267,2459,691,-611,-1487,-317,-41,153,-69,-153
0,356272,2459,691,-611,-1487,-317,-41,153,-69,-153
0,356278,2459,691,-611,-1487,-317,-41,153,-69,-153
0,356283,2459,691,-611,-1487,-317,-41,153,-69,-153
0,356289,2458,694,-611,-1492,-314,-43,160,-74,-152
0,356293,2458,694,-611,-1492,-314,-43,160,-74,-152
0,356299,2458,694,-611,-1492,-314,-43,160,-74,-152
0,356304,2458,694,-611,-1492,-314,-43,160,-74,-152
0,356310,2461,691,-607,-1487,-319,-43,160,-74,-152
0,356316,2461,691,-607,-1487,-319,-43,160,-74,-152
0,356322,2461,691,-607,-1487,-319,-43,160,-74,-152
0,356327,2463,694,-613,-1488,-317,-44,160,-74,-152
0,356332,2463,694,-613,-1488,-317,-44,160,-74,-152
0,356338,2463,694,-613,-1488,-317,-44,160,-74,-152
0,356343,2463,694,-613,-1488,-317,-44,160,-74,-152
0,356348,2461,694,-607,-1493,-317,-41,160,-74,-152
0,356355,2461,694,-607,-1493,-317,-41,160,-74,-152
0,356360,2461,694,-607,-1493,-317,-41,160,-74,-152
0,356365,2458,693,-612,-1490,-317,-44,160,-74,-152
0,356370,2458,693,-612,-1490,-317,-44,160,-74,-152
0,356376,2458,693,-612,-1490,-317,-44,160,-74,-152
0,356381,2458,693,-612,-1490,-317,-44,160,-74,-152
0,356386,2463,693,-613,-1492,-313,-43,160,-74,-152
0,356391,2463,693,-613,-1492,-313,-43,160,-74,-152
0,356398,2463,693,-613,-1492,-313,-43,160,-74,-152
0,356403,2463,693,-613,-1492,-313,-43,160,-74,-152
0,356408,2460,693,-607,-1489,-309,-35,160,-70,-158
0,356414,2460,693,-607,-1489,-309,-35,160,-70,-158
0,356420,2460,693,-607,-1489,-309,-35,160,-70,-158
0,356425,2460,691,-611,-1492,-314,-48,160,-70,-158
0,356430,2460,691,-611,-1492,-314,-48,160,-70,-158
0,356435,2460,691,-611,-1492,-314,-48,160,-70,-158
0,356442,2460,691,-611,-1492,-314,-48,160,-70,-158
0,356447,2460,691,-611,-1492,-314,-48,160,-70,-158
0,356453,2460,691,-611,-1492,-314,-48,160,-70,-158
0,356459,2460,691,-611,-1492,-314,-48,160,-70,-158
0,356464,2460,691,-611,-1492,-314,-48,160,-70,-158
0,356470,2458,691,-616,-1489,-313,-47,160,-70,-158
0,356475,2458,691,-616,-1489,-313,-47,160,-70,-158
0,356482,2458,691,-616,-1489,-313,-47,160,-70,-158
0,356487,2460,696,-615,-1491,-312,-50,160,-70,-158
0,356492,2460,696,-615,-1491,-312,-50,160,-70,-158
0,356497,2460,696,-615,-1491,-312,-50,160,-70,-158
0,356503,2460,696,-615,-1491,-312,-50,160,-70,-158
0,356508,2460,697,-613,-1492,-311,-48,160,-70,-158
0,356513,2460,697,-613,-1492,-311,-48,160,-70,-158
0,356519,2460,697,-613,-1492,-311,-48,160,-70,-158
0,356525,2460,697,-613,-1492,-311,-48,160,-70,-158
0,356530,2460,691,-612,-1492,-319,-41,160,-70,-158
0,356535,2460,691,-612,-1492,-319,-41,160,-70,-158
0,356540,2460,691,-612,-1492,-319,-41,160,-70,-158
0,356546,2457,692,-607,-1486,-311,-43,153,-71,-157
0,356552,2457,692,-607,-1486,-311,-43,153,-71,-157
0,356557,2457,692,-607,-1486,-311,-43,153,-71,-157
0,356563,2457,692,-607,-1486,-311,-43,153,-71,-157
0,356569,2461,690,-606,-1491,-315,-48,153,-71,-157
0,356574,2461,690,-606,-1491,-315,-48,153,-71,-157
0,356580,2461,690,-606,-1491,-315,-48,153,-71,-157
0,356586,2459,691,-610,-1488,-320,-46,153,-71,-157
0,356591,2459,691,-610,-1488,-320,-46,153,-71,-157
0,356597,2459,691,-610,-1488,-320,-46,153,-71,-157
0,356602,2459,691,-610,-1488,-320,-46,153,-71,-157
0,356609,2460,692,-612,-1486,-316,-44,153,-71,-157
0,356614,2460,692,-612,-1486,-316,-44,153,-71,-157
0,356619,2460,692,-612,-1486,-316,-44,153,-71,-157
0,356625,2459,692,-612,-1484,-309,-43,153,-71,-157
0,356630,2459,692,-612,-1484,-309,-43,153,-71,-157
0,356635,2459,692,-612,-1484,-309,-43,153,-71,-157
0,356641,2459,692,-612,-1484,-309,-43,153,-71,-157
0,356646,2460,694,-608,-1484,-314,-50,153,-71,-157
0,356652,2460,694,-608,-1484,-314,-50,153,-71,-157
0,356658,2460,694,-608,-1484,-314,-50,153,-71,-157
0,356663,2460,694,-608,-1484,-314,-50,153,-71,-157
0,356668,2459,693,-608,-1487,-317,-49,166,-66,-160
0,356674,2459,693,-608,-1487,-317,-49,166,-66,-160
0,356679,2459,693,-608,-1487,-317,-49,166,-66,-160
0,356685,2459,693,-611,-1487,-319,-54,166,-66,-160
0,356690,2459,693,-611,-1487,-319,-54,166,-66,-160
0,356697,2459,693,-611,-1487,-319,-54,166,-66,-160
0,356702,2459,693,-611,-1487,-319,-54,166,-66,-160
0,356707,2462,692,-615,-1490,-311,-41,166,-66,-160
0,356713,2462,692,-615,-1490,-311,-41,166,-66,-160
0,356718,2462,692,-615,-1490,-311,-41,166,-66,-160
0,356723,2462,692,-615,-1490,-311,-41,166,-66,-160
0,356729,2457,691,-613,-1491,-314,-45,166,-66,-160
0,356734,2457,691,-613,-1491,-314,-45,166,-66,-160
0,356740,2457,691,-613,-1491,-314,-45,166,-66,-160
0,356745,2457,692,-612,-1486,-318,-43,166,-66,-160
0,356751,2457,692,-612,-1486,-318,-43,166,-66,-160
0,356756,2457,692,-612,-1486,-318,-43,166,-66,-160
0,356762,2457,692,-612,-1486,-318,-43,166,-66,-160
0,356767,2460,692,-610,-1484,-318,-39,166,-66,-160
0,356773,2460,692,-610,-1484,-318,-39,166,-66,-160
0,356779,2460,692,-610,-1484,-318,-39,166,-66,-160
0,356785,2460,692,-610,-1484,-318,-39,166,-66,-160
0,356790,2459,693,-607,-1490,-311,-38,160,-84,-156
0,356796,2459,693,-607,-1490,-311,-38,160,-84,-156
0,356801,2459,693,-607,-1490,-311,-38,160,-84,-156
0,356807,2460,695,-611,-1487,-314,-43,160,-84,-156
0,356813,2460,695,-611,-1487,-314,-43,160,-84,-156
0,356818,2460,695,-611,-1487,-314,-43,160,-84,-156
0,356825,2458,693,-608,-1489,-317,-42,160,-84,-156
0,356830,2458,693,-608,-1489,-317,-42,160,-84,-156
0,356835,2458,693,-608,-1489,-317,-42,160,-84,-156
0,356841,2458,693,-608,-1489,-317,-42,160,-84,-156
0,356846,2459,694,-609,-1487,-317,-38,160,-84,-156
0,356851,2459,694,-609,-1487,-317,-38,160,-84,-156
0,356857,2459,694,-609,-1487,-317,-38,160,-84,-156
0,356862,2459,694,-609,-1487,-317,-38,160,-84,-156
0,356869,2459,693,-611,-1491,-313,-45,160,-84,-156
0,356874,2459,693,-611,-1491,-313,-45,160,-84,-156
0,356880,2459,693,-611,-1491,-313,-45,160,-84,-156
0,356885,2458,692,-611,-1486,-316,-42,160,-84,-156
0,356890,2458,692,-611,-1486,-316,-42,160,-84,-156
0,356896,2458,692,-611,-1486,-316,-42,160,-84,-156
0,356901,2458,692,-611,-1486,-316,-42,160,-84,-156
0,356907,2456,693,-610,-1485,-309,-43,152,-80,-160
0,356912,2456,693,-610,-1485,-309,-43,152,-80,-160
0,356918,2456,693,-610,-1485,-309,-43,152,-80,-160
0,356923,2456,693,-610,-1485,-309,-43,152,-80,-160
0,356929,2459,694,-610,-1496,-309,-49,152,-80,-160
0,356934,2459,694,-610,-1496,-309,-49,152,-80,-160
0,356939,2459,694,-610,-1496,-309,-49,152,-80,-160
0,356944,2459,694,-610,-1496,-309,-49,152,-80,-160
0,356951,2459,695,-605,-1487,-312,-50,152,-80,-160
0,356956,2459,695,-605,-1487,-312,-50,152,-80,-160
0,356961,2459,695,-605,-1487,-312,-50,152,-80,-160
0,356967,2460,690,-615,-1486,-319,-45,152,-80,-160
0,356973,2460,690,-615,-1486,-319,-45,152,-80,-160
0,356978,2460,690,-615,-1486,-319,-45,152,-80,-160
0,356983,2460,690,-615,-1486,-319,-45,152,-80,-160
0,356988,2459,690,-609,-1486,-316,-47,152,-80,-160
0,356994,2459,690,-609,-1486,-316,-47,152,-80,-160
0,356999,2459,690,-609,-1486,-316,-47,152,-80,-160
0,357004,2459,690,-609,-1486,-316,-47,152,-80,-160
0,357010,2461,694,-613,-1485,-315,-45,152,-80,-160
0,357016,2461,694,-613,-1485,-315,-45,152,-80,-160
0,357021,2461,694,-613,-1485,-315,-45,152,-80,-160
0,357026,2458,693,-605,-1492,-316,-40,167,-73,-161
0,357032,2458,693,-605,-1492,-316,-40,167,-73,-161
0,357038,2458,693,-605,-1492,-316,-40,167,-73,-161
0,357043,2458,693,-605,-1492,-316,-40,167,-73,-161
0,357048,2457,692,-607,-1491,-317,-37,167,-73,-161
0,357054,2457,692,-607,-1491,-317,-37,167,-73,-161
0,357060,2457,692,-607,-1491,-317,-37,167,-73,-161
0,357065,2459,691,-609,-1488,-311,-41,167,-73,-161
0,357071,2459,691,-609,-1488,-311,-41,167,-73,-161
0,357076,2459,691,-609,-1488,-311,-41,167,-73,-161
0,357082,2459,691,-609,-1488,-311,-41,167,-73,-161
0,357087,2460,695,-611,-1485,-313,-48,167,-73,-161
0,357092,2460,695,-611,-1485,-313,-48,167,-73,-161
0,357097,2460,695,-611,-1485,-313,-48,167,-73,-161
0,357103,2460,695,-611,-1485,-313,-48,167,-73,-161
0,357108,2460,693,-610,-1485,-312,-39,167,-73,-161
0,357113,2460,693,-610,-1485,-312,-39,167,-73,-161
0,357120,2460,693,-610,-1485,-312,-39,167,-73,-161
0,357125,2462,696,-610,-1486,-313,-40,167,-73,-161
0,357131,2462,696,-610,-1486,-313,-40,167,-73,-161
0,357136,2462,696,-610,-1486,-313,-40,167,-73,-161
0,357142,2462,696,-610,-1486,-313,-40,167,-73,-161
0,357147,2459,693,-610,-1484,-316,-40,167,-73,-161
0,357152,2459,693,-610,-1484,-316,-40,167,-73,-161
0,357158,2459,693,-610,-1484,-316,-40,167,-73,-161
0,357165,2459,693,-610,-1484,-316,-40,167,-73,-161
0,357170,2460,692,-605,-1484,-311,-43,160,-64,-172
0,357176,2460,692,-605,-1484,-311,-43,160,-64,-172
0,357181,2460,692,-605,-1484,-311,-43,160,-64,-172
0,357186,2457,696,-612,-1488,-306,-44,160,-64,-172
0,357191,2457,696,-612,-1488,-306,-44,160,-64,-172
0,357197,2457,696,-612,-1488,-306,-44,160,-64,-172
0,357202,2457,696,-612,-1488,-306,-44,160,-64,-172
0,357209,2462,695,-608,-1488,-316,-47,160,-64,-172
0,357214,2462,695,-608,-1488,-316,-47,160,-64,-172
0,357220,2462,695,-608,-1488,-316,-47,160,-64,-172
0,357225,2462,695,-608,-1488,-316,-47,160,-64,-172
0,357230,2460,694,-609,-1489,-310,-42,160,-64,-172
0,357235,2460,694,-609,-1489,-310,-42,160,-64,-172
0,357240,2460,694,-609,-1489,-310,-42,160,-64,-172
0,357246,2463,692,-613,-1486,-311,-44,160,-64,-172
0,357252,2463,692,-613,-1486,-311,-44,160,-64,-172
0,357257,2463,692,-613,-1486,-311,-44,160,-64,-172
0,357263,2463,692,-613,-1486,-311,-44,160,-64,-172
0,357268,2461,694,-609,-1490,-304,-39,160,-64,-172
0,357273,2461,694,-609,-1490,-304,-39,160,-64,-172
0,357279,2461,694,-609,-1490,-304,-39,160,-64,-172
0,357284,2461,694,-609,-1490,-304,-39,160,-64,-172
0,357291,2458,695,-607,-1484,-309,-52,160,-68,-166
0,357296,2458,695,-607,-1484,-309,-52,160,-68,-166
0,357302,2458,695,-607,-1484,-309,-52,160,-68,-166
0,357308,2458,691,-609,-1478,-314,-50,160,-68,-166
0,357313,2458,691,-609,-1478,-314,-50,160,-68,-166
0,357318,2458,691,-609,-1478,-314,-50,160,-68,-166
0,357324,2458,691,-609,-1478,-314,-50,160,-68,-166
0,357329,2458,693,-606,-1488,-315,-43,160,-68,-166
0,357335,2458,693,-606,-1488,-315,-43,160,-68,-166
0,357341,2458,693,-606,-1488,-315,-43,160,-68,-166
0,357346,2459,692,-611,-1490,-311,-41,160,-68,-166
0,357351,2459,692,-611,-1490,-311,-41,160,-68,-166
0,357357,2459,692,-611,-1490,-311,-41,160,-68,-166
0,357362,2459,692,-611,-1490,-311,-41,160,-68,-166
0,357367,2459,688,-609,-1488,-309,-45,160,-68,-166
0,357372,2459,688,-609,-1488,-309,-45,160,-68,-166
0,357378,2459,688,-609,-1488,-309,-45,160,-68,-166
0,357383,2459,688,-609,-1488,-309,-45,160,-68,-166
0,357389,2461,691,-612,-1491,-311,-44,160,-68,-166
0,357394,2461,691,-612,-1491,-311,-44,160,-68,-166
0,357399,2461,691,-612,-1491,-311,-44,160,-68,-166
0,357404,2461,691,-612,-1491,-311,-44,160,-68,-166
0,357409,2457,692,-604,-1496,-313,-46,160,-70,-156
0,357414,2457,692,-604,-1496,-313,-46,160,-70,-156
0,357420,2457,692,-604,-1496,-313,-46,160,-70,-156
0,357426,2457,696,-607,-1487,-310,-44,160,-70,-156
0,357430,2457,696,-607,-1487,-310,-44,160,-70,-156
0,357436,2457,696,-607,-1487,-310,-44,160,-70,-156
0,357441,2457,696,-607,-1487,-310,-44,160,-70,-156
0,357447,2460,689,-610,-1487,-313,-47,160,-70,-156
0,357452,2460,689,-610,-1487,-313,-47,160,-70,-156
0,357457,2460,689,-610,-1487,-313,-47,160,-70,-156
0,357464,2460,689,-610,-1487,-313,-47,160,-70,-156
0,357470,2458,695,-609,-1483,-313,-51,160,-70,-156
0,357474,2458,695,-609,-1483,-313,-51,160,-70,-156
0,357480,2458,695,-609,-1483,-313,-51,160,-70,-156
0,357486,2459,693,-610,-1482,-315,-44,160,-70,-156
