imu,time,ax,ay,az,gx,gy,gz,mx,my,mz
1,344249,-1427,366,-640,-129,-239,-93,62,-54,-196
1,344256,-1427,366,-640,-129,-239,-93,62,-54,-196
1,344263,-1427,366,-640,-129,-239,-93,62,-54,-196
1,344270,-1426,367,-640,-127,-238,-92,62,-54,-196
1,344278,-1426,367,-640,-127,-238,-92,62,-54,-196
1,344285,-1426,367,-638,-125,-230,-100,62,-54,-196
1,344292,-1426,367,-638,-125,-230,-100,62,-54,-196
1,344299,-1426,367,-638,-125,-230,-100,62,-54,-196
1,344305,-1426,367,-637,-133,-232,-93,63,-57,-191
1,344311,-1426,367,-637,-133,-232,-93,63,-57,-191
1,344316,-1426,367,-637,-133,-232,-93,63,-57,-191
1,344322,-1426,367,-637,-133,-232,-93,63,-57,-191
1,344328,-1425,367,-635,-133,-233,-88,63,-57,-191
1,344333,-1425,367,-635,-133,-233,-88,63,-57,-191
1,344339,-1425,367,-635,-133,-233,-88,63,-57,-191
1,344345,-1427,365,-640,-137,-236,-86,63,-57,-191
1,344351,-1427,365,-640,-137,-236,-86,63,-57,-191
1,344357,-1427,365,-640,-137,-236,-86,63,-57,-191
1,344363,-1427,365,-640,-137,-236,-86,63,-57,-191
1,344368,-1424,367,-640,-134,-240,-87,63,-57,-191
1,344374,-1424,367,-640,-134,-240,-87,63,-57,-191
1,344379,-1424,367,-640,-134,-240,-87,63,-57,-191
1,344385,-1426,365,-635,-134,-240,-91,63,-57,-191
1,344391,-1426,365,-635,-134,-240,-91,63,-57,-191
1,344396,-1426,365,-635,-134,-240,-91,63,-57,-191
1,344403,-1426,365,-635,-134,-240,-91,63,-57,-191
1,344410,-1425,370,-638,-135,-229,-88,63,-57,-191
1,344415,-1425,370,-638,-135,-229,-88,63,-57,-191
1,344421,-1425,370,-638,-135,-229,-88,63,-57,-191
1,344427,-1424,368,-637,-130,-229,-87,65,-53,-193
1,344434,-1424,368,-637,-130,-229,-87,65,-53,-193
1,344440,-1424,368,-637,-130,-229,-87,65,-53,-193
1,344446,-1425,369,-640,-127,-238,-91,65,-53,-193
1,344453,-1425,369,-640,-127,-238,-91,65,-53,-193
1,344460,-1425,369,-640,-127,-238,-91,65,-53,-193
1,344466,-1427,366,-635,-129,-230,-88,65,-53,-193
1,344473,-1427,366,-635,-129,-230,-88,65,-53,-193
1,344480,-1427,366,-635,-129,-230,-88,65,-53,-193
1,344487,-1425,364,-636,-134,-241,-90,65,-53,-193
1,344496,-1425,364,-636,-134,-241,-90,65,-53,-193
1,344502,-1425,364,-636,-134,-241,-90,65,-53,-193
1,344509,-1425,370,-638,-132,-234,-92,65,-53,-193
1,344514,-1425,370,-638,-132,-234,-92,65,-53,-193
1,344520,-1425,370,-638,-132,-234,-92,65,-53,-193
1,344526,-1430,370,-641,-131,-233,-80,65,-53,-193
1,344534,-1430,370,-641,-131,-233,-80,65,-53,-193
1,344540,-1430,370,-641,-131,-233,-80,65,-53,-193
1,344546,-1425,368,-631,-133,-232,-90,66,-60,-196
1,344552,-1425,368,-631,-133,-232,-90,66,-60,-196
1,344557,-1425,368,-631,-133,-232,-90,66,-60,-196
1,344562,-1425,368,-631,-133,-232,-90,66,-60,-196
1,344568,-1424,369,-635,-136,-229,-92,66,-60,-196
1,344574,-1424,369,-635,-136,-229,-92,66,-60,-196
1,344580,-1424,369,-635,-136,-229,-92,66,-60,-196
1,344586,-1425,368,-635,-128,-236,-94,66,-60,-196
1,344591,-1425,368,-635,-128,-236,-94,66,-60,-196
1,344596,-1425,368,-635,-128,-236,-94,66,-60,-196
1,344602,-1425,368,-635,-128,-236,-94,66,-60,-196
1,344607,-1422,368,-634,-128,-231,-85,66,-60,-196
1,344613,-1422,368,-634,-128,-231,-85,66,-60,-196
1,344620,-1422,368,-634,-128,-231,-85,66,-60,-196
1,344625,-1429,370,-641,-128,-237,-85,66,-60,-196
1,344632,-1429,370,-641,-128,-237,-85,66,-60,-196
1,344637,-1429,370,-641,-128,-237,-85,66,-60,-196
1,344643,-1429,370,-641,-128,-237,-85,66,-60,-196
1,344648,-1423,365,-636,-132,-230,-92,66,-60,-196
1,344654,-1423,365,-636,-132,-230,-92,66,-60,-196
1,344659,-1423,365,-636,-132,-230,-92,66,-60,-196
1,344665,-1423,365,-636,-132,-230,-92,66,-60,-196
1,344669,-1425,367,-635,-137,-236,-96,69,-53,-197
1,344676,-1425,367,-635,-137,-236,-96,69,-53,-197
1,344682,-1425,367,-635,-137,-236,-96,69,-53,-197
1,344688,-1424,369,-634,-133,-228,-91,69,-53,-197
1,344694,-1424,369,-634,-133,-228,-91,69,-53,-197
1,344700,-1424,369,-634,-133,-228,-91,69,-53,-197
1,344706,-1425,368,-636,-136,-231,-85,69,-53,-197
1,344711,-1425,368,-636,-136,-231,-85,69,-53,-197
1,344716,-1425,368,-636,-136,-231,-85,69,-53,-197
1,344722,-1425,368,-636,-136,-231,-85,69,-53,-197
1,344727,-1426,368,-639,-134,-231,-91,69,-53,-197
1,344733,-1426,368,-639,-134,-231,-91,69,-53,-197
1,344738,-1426,368,-639,-134,-231,-91,69,-53,-197
1,344744,-1423,365,-638,-132,-234,-100,69,-53,-197
1,344751,-1423,365,-638,-132,-234,-100,69,-53,-197
1,344756,-1423,365,-638,-132,-234,-100,69,-53,-197
1,344762,-1423,365,-638,-132,-234,-100,69,-53,-197
1,344768,-1426,369,-636,-131,-233,-92,69,-53,-197
1,344773,-1426,369,-636,-131,-233,-92,69,-53,-197
1,344778,-1426,369,-636,-131,-233,-92,69,-53,-197
1,344784,-1426,369,-636,-131,-233,-92,69,-53,-197
1,344790,-1426,369,-636,-130,-236,-85,66,-62,-194
1,344795,-1426,369,-636,-130,-236,-85,66,-62,-194
1,344801,-1426,369,-636,-130,-236,-85,66,-62,-194
1,344806,-1426,369,-636,-130,-236,-85,66,-62,-194
1,344812,-1426,369,-636,-130,-236,-85,66,-62,-194
1,344817,-1426,369,-636,-130,-236,-85,66,-62,-194
1,344823,-1426,369,-636,-130,-236,-85,66,-62,-194
1,344829,-1428,367,-637,-127,-229,-90,66,-62,-194
1,344836,-1428,367,-637,-127,-229,-90,66,-62,-194
1,344842,-1428,367,-637,-127,-229,-90,66,-62,-194
1,344849,-1426,367,-641,-136,-230,-85,66,-62,-194
1,344854,-1426,367,-641,-136,-230,-85,66,-62,-194
1,344859,-1426,367,-641,-136,-230,-85,66,-62,-194
1,344865,-1426,367,-637,-131,-229,-88,66,-62,-194
1,344871,-1426,367,-637,-131,-229,-88,66,-62,-194
1,344878,-1426,367,-637,-131,-229,-88,66,-62,-194
1,344885,-1426,367,-637,-131,-229,-88,66,-62,-194
1,344891,-1423,367,-635,-127,-230,-93,66,-62,-194
1,344897,-1423,367,-635,-127,-230,-93,66,-62,-194
1,344903,-1423,367,-635,-127,-230,-93,66,-62,-194
1,344909,-1425,368,-641,-131,-230,-84,68,-56,-192
1,344915,-1425,368,-641,-131,-230,-84,68,-56,-192
1,344921,-1425,368,-641,-131,-230,-84,68,-56,-192
1,344926,-1424,366,-632,-135,-231,-92,68,-56,-192
1,344932,-1424,366,-632,-135,-231,-92,68,-56,-192
1,344937,-1424,366,-632,-135,-231,-92,68,-56,-192
1,344943,-1424,366,-632,-135,-231,-92,68,-56,-192
1,344949,-1427,369,-632,-132,-230,-89,68,-56,-192
1,344954,-1427,369,-632,-132,-230,-89,68,-56,-192
1,344961,-1427,369,-632,-132,-230,-89,68,-56,-192
1,344967,-1424,368,-641,-132,-230,-89,68,-56,-192
1,344972,-1424,368,-641,-132,-230,-89,68,-56,-192
1,344978,-1424,368,-641,-132,-230,-89,68,-56,-192
1,344984,-1424,368,-641,-132,-230,-89,68,-56,-192
1,344989,-1425,368,-641,-131,-231,-98,68,-56,-192
1,344995,-1425,368,-641,-131,-231,-98,68,-56,-192
1,345000,-1425,368,-641,-131,-231,-98,68,-56,-192
1,345007,-1423,367,-637,-135,-228,-85,68,-56,-192
1,345012,-1423,367,-637,-135,-228,-85,68,-56,-192
1,345017,-1423,367,-637,-135,-228,-85,68,-56,-192
1,345022,-1423,367,-637,-135,-228,-85,68,-56,-192
1,345028,-1425,363,-639,-133,-225,-90,68,-56,-192
1,345034,-1425,363,-639,-133,-225,-90,68,-56,-192
1,345039,-1425,363,-639,-133,-225,-90,68,-56,-192
1,345044,-1429,368,-634,-126,-231,-95,68,-56,-192
1,345051,-1429,368,-634,-126,-231,-95,62,-62,-188
1,345056,-1429,368,-634,-126,-231,-95,62,-62,-188
1,345061,-1429,368,-634,-126,-231,-95,62,-62,-188
1,345066,-1424,366,-636,-125,-229,-94,62,-62,-188
1,345072,-1424,366,-636,-125,-229,-94,62,-62,-188
1,345077,-1424,366,-636,-125,-229,-94,62,-62,-188
1,345082,-1424,366,-636,-125,-229,-94,62,-62,-188
1,345089,-1425,367,-638,-135,-227,-99,62,-62,-188
1,345094,-1425,367,-638,-135,-227,-99,62,-62,-188
1,345099,-1425,367,-638,-135,-227,-99,62,-62,-188
1,345105,-1427,371,-640,-132,-233,-90,62,-62,-188
1,345110,-1427,371,-640,-132,-233,-90,62,-62,-188
1,345115,-1427,371,-640,-132,-233,-90,62,-62,-188
1,345121,-1427,371,-640,-132,-233,-90,62,-62,-188
1,345126,-1425,368,-640,-134,-234,-91,62,-62,-188
1,345132,-1425,368,-640,-134,-234,-91,62,-62,-188
1,345138,-1425,368,-640,-134,-234,-91,62,-62,-188
1,345144,-1425,368,-640,-134,-234,-91,62,-62,-188
1,345150,-1425,367,-639,-135,-226,-86,62,-62,-188
1,345156,-1425,367,-639,-135,-226,-86,62,-62,-188
1,345162,-1425,367,-639,-135,-226,-86,62,-62,-188
1,345167,-1425,369,-638,-133,-238,-92,65,-61,-187
1,345172,-1425,369,-638,-133,-238,-92,65,-61,-187
1,345179,-1425,369,-638,-133,-238,-92,65,-61,-187
1,345184,-1425,369,-638,-133,-238,-92,65,-61,-187
1,345190,-1425,366,-637,-137,-233,-91,65,-61,-187
1,345196,-1425,366,-637,-137,-233,-91,65,-61,-187
1,345201,-1425,366,-637,-137,-233,-91,65,-61,-187
1,345207,-1428,364,-639,-127,-239,-88,65,-61,-187
1,345213,-1428,364,-639,-127,-239,-88,65,-61,-187
1,345219,-1428,364,-639,-127,-239,-88,65,-61,-187
1,345226,-1424,366,-640,-134,-226,-94,65,-61,-187
1,345231,-1424,366,-640,-134,-226,-94,65,-61,-187
1,345237,-1424,366,-640,-134,-226,-94,65,-61,-187
1,345243,-1424,366,-640,-134,-226,-94,65,-61,-187
1,345249,-1425,371,-638,-129,-230,-86,65,-61,-187
1,345255,-1425,371,-638,-129,-230,-86,65,-61,-187
1,345262,-1425,371,-638,-129,-230,-86,65,-61,-187
1,345267,-1426,368,-641,-127,-236,-92,65,-61,-187
1,345273,-1426,368,-641,-127,-236,-92,65,-61,-187
1,345278,-1426,368,-641,-127,-236,-92,65,-61,-187
1,345283,-1426,368,-641,-127,-236,-92,65,-61,-187
1,345289,-1425,364,-639,-132,-235,-96,61,-61,-191
1,345294,-1425,364,-639,-132,-235,-96,61,-61,-191
1,345299,-1425,364,-639,-132,-235,-96,61,-61,-191
1,345306,-1424,366,-638,-128,-234,-93,61,-61,-191
1,345311,-1424,366,-638,-128,-234,-93,61,-61,-191
1,345317,-1424,366,-638,-128,-234,-93,61,-61,-191
1,345323,-1424,366,-638,-128,-234,-93,61,-61,-191
1,345328,-1424,366,-640,-131,-234,-91,61,-61,-191
1,345334,-1424,366,-640,-131,-234,-91,61,-61,-191
1,345340,-1424,366,-640,-131,-234,-91,61,-61,-191
1,345346,-1424,367,-635,-133,-239,-79,61,-61,-191
1,345351,-1424,367,-635,-133,-239,-79,61,-61,-191
1,345356,-1424,367,-635,-133,-239,-79,61,-61,-191
1,345362,-1424,367,-635,-133,-239,-79,61,-61,-191
1,345367,-1423,366,-639,-127,-239,-86,61,-61,-191
1,345373,-1423,366,-639,-127,-239,-86,61,-61,-191
1,345380,-1423,366,-639,-127,-239,-86,61,-61,-191
1,345387,-1424,366,-639,-131,-238,-89,61,-61,-191
1,345392,-1424,366,-639,-131,-238,-89,61,-61,-191
1,345398,-1424,366,-639,-131,-238,-89,61,-61,-191
1,345403,-1424,366,-639,-131,-238,-89,61,-61,-191
1,345408,-1426,369,-632,-125,-229,-85,79,-59,-195
1,345413,-1426,369,-632,-125,-229,-85,79,-59,-195
1,345419,-1426,369,-632,-125,-229,-85,79,-59,-195
1,345424,-1426,369,-632,-125,-229,-85,79,-59,-195
1,345430,-1427,365,-631,-126,-230,-94,79,-59,-195
1,345435,-1427,365,-631,-126,-230,-94,79,-59,-195
1,345441,-1427,365,-631,-126,-230,-94,79,-59,-195
1,345446,-1426,367,-636,-129,-228,-96,79,-59,-195
1,345450,-1426,367,-636,-129,-228,-96,79,-59,-195
1,345456,-1426,367,-636,-129,-228,-96,79,-59,-195
1,345462,-1426,367,-636,-129,-228,-96,79,-59,-195
1,345467,-1424,367,-630,-127,-224,-93,79,-59,-195
1,345474,-1424,367,-630,-127,-224,-93,79,-59,-195
1,345480,-1424,367,-630,-127,-224,-93,79,-59,-195
1,345486,-1426,368,-640,-124,-231,-93,79,-59,-195
1,345491,-1426,368,-640,-124,-231,-93,79,-59,-195
1,345496,-1426,368,-640,-124,-231,-93,79,-59,-195
1,345502,-1426,368,-640,-124,-231,-93,79,-59,-195
1,345507,-1426,366,-643,-128,-230,-89,79,-59,-195
1,345512,-1426,366,-643,-128,-230,-89,79,-59,-195
1,345518,-1426,366,-643,-128,-230,-89,79,-59,-195
1,345524,-1426,366,-643,-128,-230,-89,79,-59,-195
1,345529,-1425,367,-634,-135,-231,-88,64,-54,-186
1,345535,-1425,367,-634,-135,-231,-88,64,-54,-186
1,345540,-1425,367,-634,-135,-231,-88,64,-54,-186
1,345546,-1426,369,-635,-133,-233,-91,64,-54,-186
1,345551,-1426,369,-635,-133,-233,-91,64,-54,-186
1,345556,-1426,369,-635,-133,-233,-91,64,-54,-186
1,345562,-1426,369,-635,-133,-233,-91,64,-54,-186
1,345568,-1425,366,-640,-127,-233,-94,64,-54,-186
1,345573,-1425,366,-640,-127,-233,-94,64,-54,-186
1,345579,-1425,366,-640,-127,-233,-94,64,-54,-186
1,345585,-1425,366,-640,-127,-233,-94,64,-54,-186
1,345591,-1425,364,-638,-137,-239,-96,64,-54,-186
1,345597,-1425,364,-638,-137,-239,-96,64,-54,-186
1,345603,-1425,364,-638,-137,-239,-96,64,-54,-186
1,345609,-1427,366,-637,-136,-238,-93,64,-54,-186
1,345615,-1427,366,-637,-136,-238,-93,64,-54,-186
1,345621,-1427,366,-637,-136,-238,-93,64,-54,-186
1,345627,-1427,367,-638,-132,-234,-90,64,-54,-186
1,345632,-1427,367,-638,-132,-234,-90,64,-54,-186
1,345638,-1427,367,-638,-132,-234,-90,64,-54,-186
1,345644,-1427,367,-638,-132,-234,-90,64,-54,-186
1,345650,-1428,368,-635,-133,-231,-91,64,-54,-186
1,345656,-1428,368,-635,-133,-231,-91,64,-54,-186
1,345662,-1428,368,-635,-133,-231,-91,64,-54,-186
1,345668,-1426,370,-639,-135,-231,-91,64,-54,-186
1,345674,-1426,370,-639,-135,-231,-91,64,-54,-186
1,345681,-1426,370,-639,-135,-231,-91,64,-54,-186
1,345689,-1423,367,-638,-132,-230,-91,64,-54,-186
1,345696,-1423,367,-638,-132,-230,-91,64,-54,-186
1,345702,-1423,367,-638,-132,-230,-91,64,-54,-186
1,345708,-1425,367,-638,-135,-226,-91,64,-54,-186
1,345714,-1425,367,-638,-135,-226,-91,64,-54,-186
1,345720,-1425,367,-638,-135,-226,-91,64,-54,-186
1,345725,-1424,367,-638,-133,-227,-87,64,-54,-186
1,345732,-1424,367,-638,-133,-227,-87,64,-54,-186
1,345738,-1424,367,-638,-133,-227,-87,64,-54,-186
1,345743,-1424,367,-638,-133,-227,-87,64,-54,-186
1,345749,-1428,366,-638,-135,-230,-89,64,-54,-186
1,345755,-1428,366,-638,-135,-230,-89,64,-54,-186
1,345761,-1428,366,-638,-135,-230,-89,64,-54,-186
1,345766,-1423,366,-638,-134,-228,-94,64,-54,-186
1,345772,-1423,366,-638,-134,-228,-94,64,-54,-186
1,345778,-1423,366,-638,-134,-228,-94,64,-54,-186
1,345783,-1423,366,-638,-134,-228,-94,64,-54,-186
1,345788,-1428,366,-637,-137,-230,-98,73,-55,-199
1,345793,-1428,366,-637,-137,-230,-98,73,-55,-199
1,345799,-1428,366,-637,-137,-230,-98,73,-55,-199
1,345804,-1428,366,-637,-137,-230,-98,73,-55,-199
1,345810,-1422,368,-633,-136,-235,-90,73,-55,-199
1,345816,-1422,368,-633,-136,-235,-90,73,-55,-199
1,345821,-1422,368,-633,-136,-235,-90,73,-55,-199
1,345826,-1428,370,-646,-133,-239,-90,73,-55,-199
1,345831,-1428,370,-646,-133,-239,-90,73,-55,-199
1,345836,-1428,370,-646,-133,-239,-90,73,-55,-199
1,345842,-1428,370,-646,-133,-239,-90,73,-55,-199
1,345847,-1425,367,-640,-129,-225,-91,73,-55,-199
1,345852,-1425,367,-640,-129,-225,-91,73,-55,-199
1,345858,-1425,367,-640,-129,-225,-91,73,-55,-199
1,345863,-1425,367,-640,-129,-225,-91,73,-55,-199
1,345868,-1428,369,-637,-133,-232,-93,73,-55,-199
1,345873,-1428,369,-637,-133,-232,-93,73,-55,-199
1,345878,-1428,369,-637,-133,-232,-93,73,-55,-199
1,345883,-1428,369,-637,-133,-232,-93,73,-55,-199
1,345889,-1427,371,-637,-133,-225,-92,73,-55,-199
1,345894,-1427,371,-637,-133,-225,-92,73,-55,-199
1,345901,-1427,371,-637,-133,-225,-92,73,-55,-199
1,345906,-1427,371,-637,-133,-225,-92,73,-55,-199
1,345911,-1427,371,-637,-133,-225,-92,59,-51,-195
1,345917,-1427,371,-637,-133,-225,-92,59,-51,-195
1,345922,-1427,371,-637,-133,-225,-92,59,-51,-195
1,345927,-1427,367,-636,-129,-228,-94,59,-51,-195
1,345933,-1427,367,-636,-129,-228,-94,59,-51,-195
1,345938,-1427,367,-636,-129,-228,-94,59,-51,-195
1,345944,-1427,367,-636,-129,-228,-94,59,-51,-195
1,345950,-1424,367,-636,-129,-236,-90,59,-51,-195
1,345955,-1424,367,-636,-129,-236,-90,59,-51,-195
1,345961,-1424,367,-636,-129,-236,-90,59,-51,-195
1,345966,-1425,370,-634,-128,-224,-89,59,-51,-195
1,345972,-1425,370,-634,-128,-224,-89,59,-51,-195
1,345978,-1425,370,-634,-128,-224,-89,59,-51,-195
1,345984,-1425,370,-634,-128,-224,-89,59,-51,-195
1,345989,-1425,365,-641,-134,-238,-94,59,-51,-195
1,345995,-1425,365,-641,-134,-238,-94,59,-51,-195
1,346000,-1425,365,-641,-134,-238,-94,59,-51,-195
1,346005,-1425,365,-641,-134,-238,-94,59,-51,-195
1,346010,-1429,365,-634,-128,-235,-93,59,-51,-195
1,346016,-1429,365,-634,-128,-235,-93,59,-51,-195
1,346021,-1429,365,-634,-128,-235,-93,59,-51,-195
1,346028,-1425,367,-636,-128,-228,-91,74,-58,-192
1,346033,-1425,367,-636,-128,-228,-91,74,-58,-192
1,346038,-1425,367,-636,-128,-228,-91,74,-58,-192
1,346043,-1425,367,-636,-128,-228,-91,74,-58,-192
1,346048,-1426,365,-632,-131,-231,-89,74,-58,-192
1,346054,-1426,365,-632,-131,-231,-89,74,-58,-192
1,346059,-1426,365,-632,-131,-231,-89,74,-58,-192
1,346064,-1426,365,-632,-131,-231,-89,74,-58,-192
1,346071,-1426,371,-637,-128,-230,-92,74,-58,-192
1,346076,-1426,371,-637,-128,-230,-92,74,-58,-192
1,346082,-1426,371,-637,-128,-230,-92,74,-58,-192
1,346088,-1428,367,-638,-133,-230,-94,74,-58,-192
1,346093,-1428,367,-638,-133,-230,-94,74,-58,-192
1,346098,-1428,367,-638,-133,-230,-94,74,-58,-192
1,346104,-1428,367,-638,-133,-230,-94,74,-58,-192
1,346109,-1427,369,-640,-131,-233,-91,74,-58,-192
1,346116,-1427,369,-640,-131,-233,-91,74,-58,-192
1,346121,-1427,369,-640,-131,-233,-91,74,-58,-192
1,346126,-1427,366,-633,-127,-231,-89,74,-58,-192
1,346132,-1427,366,-633,-127,-231,-89,74,-58,-192
1,346137,-1427,366,-633,-127,-231,-89,74,-58,-192
1,346142,-1427,366,-633,-127,-231,-89,74,-58,-192
1,346148,-1426,371,-635,-136,-230,-88,64,-46,-196
1,346153,-1426,371,-635,-136,-230,-88,64,-46,-196
1,346159,-1426,371,-635,-136,-230,-88,64,-46,-196
1,346165,-1426,371,-635,-136,-230,-88,64,-46,-196
1,346170,-1425,365,-638,-137,-233,-84,64,-46,-196
1,346176,-1425,365,-638,-137,-233,-84,64,-46,-196
1,346181,-1425,365,-638,-137,-233,-84,64,-46,-196
1,346186,-1428,367,-633,-133,-233,-86,64,-46,-196
1,346192,-1428,367,-633,-133,-233,-86,64,-46,-196
1,346199,-1428,367,-633,-133,-233,-86,64,-46,-196
1,346204,-1428,367,-633,-133,-233,-86,64,-46,-196
1,346210,-1428,367,-638,-127,-232,-89,64,-46,-196
1,346215,-1428,367,-638,-127,-232,-89,64,-46,-196
1,346220,-1428,367,-638,-127,-232,-89,64,-46,-196
1,346226,-1426,367,-632,-134,-227,-94,64,-46,-196
1,346231,-1426,367,-632,-134,-227,-94,64,-46,-196
1,346237,-1426,367,-632,-134,-227,-94,64,-46,-196
1,346243,-1426,367,-632,-134,-227,-94,64,-46,-196
1,346248,-1429,367,-638,-134,-239,-95,64,-46,-196
1,346253,-1429,367,-638,-134,-239,-95,64,-46,-196
1,346258,-1429,367,-638,-134,-239,-95,64,-46,-196
1,346264,-1429,367,-638,-134,-239,-95,64,-46,-196
1,346269,-1427,370,-635,-130,-240,-93,64,-60,-188
1,346275,-1427,370,-635,-130,-240,-93,64,-60,-188
1,346280,-1427,370,-635,-130,-240,-93,64,-60,-188
1,346287,-1426,367,-637,-129,-228,-90,64,-60,-188
1,346292,-1426,367,-637,-129,-228,-90,64,-60,-188
1,346297,-1426,367,-637,-129,-228,-90,64,-60,-188
1,346303,-1426,367,-637,-129,-228,-90,64,-60,-188
1,346308,-1428,367,-636,-132,-222,-90,64,-60,-188
1,346315,-1428,367,-636,-132,-222,-90,64,-60,-188
1,346321,-1428,367,-636,-132,-222,-90,64,-60,-188
1,346328,-1430,368,-638,-135,-226,-87,64,-60,-188
1,346334,-1430,368,-638,-135,-226,-87,64,-60,-188
1,346339,-1430,368,-638,-135,-226,-87,64,-60,-188
1,346346,-1430,368,-638,-135,-226,-87,64,-60,-188
1,346352,-1430,368,-638,-135,-226,-87,64,-60,-188
1,346358,-1430,368,-638,-135,-226,-87,64,-60,-188
1,346364,-1430,368,-638,-135,-226,-87,64,-60,-188
1,346371,-1426,367,-643,-137,-235,-99,64,-60,-188
1,346377,-1426,367,-643,-137,-235,-99,64,-60,-188
1,346383,-1426,367,-643,-137,-235,-99,64,-60,-188
1,346389,-1428,367,-640,-138,-232,-91,64,-60,-188
1,346393,-1428,367,-640,-138,-232,-91,64,-60,-188
1,346399,-1428,367,-640,-138,-232,-91,64,-60,-188
1,346405,-1428,367,-640,-138,-232,-91,64,-60,-188
1,346412,-1426,368,-638,-130,-237,-89,65,-59,-195
1,346418,-1426,368,-638,-130,-237,-89,65,-59,-195
1,346424,-1426,368,-638,-130,-237,-89,65,-59,-195
1,346430,-1427,369,-636,-135,-230,-85,65,-59,-195
1,346437,-1427,369,-636,-135,-230,-85,65,-59,-195
1,346443,-1427,369,-636,-135,-230,-85,65,-59,-195
1,346449,-1425,368,-636,-130,-233,-90,65,-59,-195
1,346457,-1425,368,-636,-130,-233,-90,65,-59,-195
1,346464,-1425,368,-636,-130,-233,-90,65,-59,-195
1,346470,-1425,369,-635,-134,-232,-89,65,-59,-195
1,346477,-1425,369,-635,-134,-232,-89,65,-59,-195
1,346484,-1425,369,-635,-134,-232,-89,65,-59,-195
1,346490,-1427,367,-638,-140,-231,-83,65,-59,-195
1,346497,-1427,367,-638,-140,-231,-83,65,-59,-195
1,346503,-1427,367,-638,-140,-231,-83,65,-59,-195
1,346508,-1427,370,-642,-136,-226,-97,65,-59,-195
1,346514,-1427,370,-642,-136,-226,-97,65,-59,-195
1,346520,-1427,370,-642,-136,-226,-97,65,-59,-195
1,346525,-1427,370,-642,-136,-226,-97,65,-59,-195
1,346531,-1422,369,-638,-135,-229,-101,64,-50,-186
1,346536,-1422,369,-638,-135,-229,-101,64,-50,-186
1,346542,-1422,369,-638,-135,-229,-101,64,-50,-186
1,346548,-1424,367,-637,-133,-236,-99,64,-50,-186
1,346554,-1424,367,-637,-133,-236,-99,64,-50,-186
1,346560,-1424,367,-637,-133,-236,-99,64,-50,-186
1,346566,-1424,367,-637,-133,-236,-99,64,-50,-186
1,346572,-1424,367,-637,-132,-236,-95,64,-50,-186
1,346577,-1424,367,-637,-132,-236,-95,64,-50,-186
1,346585,-1424,367,-637,-132,-236,-95,64,-50,-186
1,346591,-1422,366,-638,-127,-233,-92,64,-50,-186
1,346596,-1422,366,-638,-127,-233,-92,64,-50,-186
1,346602,-1422,366,-638,-127,-233,-92,64,-50,-186
1,346609,-1424,368,-637,-134,-228,-86,64,-50,-186
1,346616,-1424,368,-637,-134,-228,-86,64,-50,-186
1,346624,-1424,368,-637,-134,-228,-86,64,-50,-186
1,346631,-1427,366,-641,-137,-232,-88,64,-50,-186
1,346636,-1427,366,-641,-137,-232,-88,64,-50,-186
1,346642,-1427,366,-641,-137,-232,-88,64,-50,-186
1,346647,-1425,370,-636,-142,-230,-81,66,-60,-186
1,346653,-1425,370,-636,-142,-230,-81,66,-60,-186
1,346658,-1425,370,-636,-142,-230,-81,66,-60,-186
1,346663,-1425,370,-636,-142,-230,-81,66,-60,-186
1,346670,-1427,368,-633,-131,-233,-83,66,-60,-186
1,346675,-1427,368,-633,-131,-233,-83,66,-60,-186
1,346681,-1427,368,-633,-131,-233,-83,66,-60,-186
1,346686,-1427,368,-633,-131,-233,-83,66,-60,-186
1,346691,-1424,366,-634,-130,-235,-91,66,-60,-186
1,346697,-1424,366,-634,-130,-235,-91,66,-60,-186
1,346702,-1424,366,-634,-130,-235,-91,66,-60,-186
1,346707,-1427,366,-637,-132,-235,-91,66,-60,-186
1,346713,-1427,366,-637,-132,-235,-91,66,-60,-186
1,346719,-1427,366,-637,-132,-235,-91,66,-60,-186
1,346724,-1427,366,-637,-132,-235,-91,66,-60,-186
1,346730,-1423,365,-639,-134,-230,-86,66,-60,-186
1,346736,-1423,365,-639,-134,-230,-86,66,-60,-186
1,346741,-1423,365,-639,-134,-230,-86,66,-60,-186
1,346747,-1426,369,-638,-139,-230,-89,66,-60,-186
1,346754,-1426,369,-638,-139,-230,-89,66,-60,-186
1,346759,-1426,369,-638,-139,-230,-89,66,-60,-186
1,346764,-1426,369,-638,-139,-230,-89,66,-60,-186
1,346770,-1426,365,-632,-135,-229,-95,68,-58,-192
1,346776,-1426,365,-632,-135,-229,-95,68,-58,-192
1,346781,-1426,365,-632,-135,-229,-95,68,-58,-192
1,346787,-1424,364,-634,-134,-231,-91,68,-58,-192
1,346792,-1424,364,-634,-134,-231,-91,68,-58,-192
1,346798,-1424,364,-634,-134,-231,-91,68,-58,-192
1,346804,-1424,364,-634,-134,-231,-91,68,-58,-192
1,346810,-1426,368,-639,-135,-234,-92,68,-58,-192
1,346815,-1426,368,-639,-135,-234,-92,68,-58,-192
1,346821,-1426,368,-639,-135,-234,-92,68,-58,-192
1,346826,-1426,368,-639,-135,-234,-92,68,-58,-192
1,346831,-1426,366,-638,-132,-233,-85,68,-58,-192
1,346838,-1426,366,-638,-132,-233,-85,68,-58,-192
1,346843,-1426,366,-638,-132,-233,-85,68,-58,-192
1,346848,-1425,365,-640,-137,-229,-90,68,-58,-192
1,346854,-1425,365,-640,-137,-229,-90,68,-58,-192
1,346859,-1425,365,-640,-137,-229,-90,68,-58,-192
1,346864,-1425,365,-640,-137,-229,-90,68,-58,-192
1,346870,-1425,369,-642,-135,-236,-90,68,-58,-192
1,346875,-1425,369,-642,-135,-236,-90,68,-58,-192
1,346881,-1425,369,-642,-135,-236,-90,68,-58,-192
1,346886,-1425,369,-642,-135,-236,-90,68,-58,-192
1,346891,-1424,369,-636,-133,-237,-89,61,-61,-193
1,346896,-1424,369,-636,-133,-237,-89,61,-61,-193
1,346902,-1424,369,-636,-133,-237,-89,61,-61,-193
1,346907,-1426,367,-633,-128,-232,-95,61,-61,-193
1,346913,-1426,367,-633,-128,-232,-95,61,-61,-193
1,346919,-1426,367,-633,-128,-232,-95,61,-61,-193
1,346925,-1426,367,-633,-128,-232,-95,61,-61,-193
1,346931,-1427,369,-635,-130,-235,-96,61,-61,-193
1,346936,-1427,369,-635,-130,-235,-96,61,-61,-193
1,346942,-1427,369,-635,-130,-235,-96,61,-61,-193
1,346947,-1427,369,-635,-130,-235,-96,61,-61,-193
1,346952,-1425,367,-636,-133,-232,-89,61,-61,-193
1,346957,-1425,367,-636,-133,-232,-89,61,-61,-193
1,346962,-1425,367,-636,-133,-232,-89,61,-61,-193
1,346969,-1426,367,-635,-131,-231,-95,61,-61,-193
1,346975,-1426,367,-635,-131,-231,-95,61,-61,-193
1,346980,-1426,367,-635,-131,-231,-95,61,-61,-193
1,346986,-1426,367,-635,-131,-231,-95,61,-61,-193
1,346992,-1424,366,-644,-133,-235,-95,61,-61,-193
1,346997,-1424,366,-644,-133,-235,-95,61,-61,-193
1,347003,-1424,366,-644,-133,-235,-95,61,-61,-193
1,347009,-1422,370,-641,-126,-234,-91,67,-61,-193
1,347014,-1422,370,-641,-126,-234,-91,67,-61,-193
1,347020,-1422,370,-641,-126,-234,-91,67,-61,-193
1,347025,-1422,370,-641,-126,-234,-91,67,-61,-193
1,347030,-1425,366,-642,-132,-232,-89,67,-61,-193
1,347036,-1425,366,-642,-132,-232,-89,67,-61,-193
1,347042,-1425,366,-642,-132,-232,-89,67,-61,-193
1,347047,-1426,368,-640,-131,-228,-89,67,-61,-193
1,347053,-1426,368,-640,-131,-228,-89,67,-61,-193
1,347059,-1426,368,-640,-131,-228,-89,67,-61,-193
1,347064,-1426,368,-640,-131,-228,-89,67,-61,-193
1,347070,-1425,366,-634,-128,-228,-91,67,-61,-193
1,347075,-1425,366,-634,-128,-228,-91,67,-61,-193
1,347081,-1425,366,-634,-128,-228,-91,67,-61,-193
1,347088,-1427,366,-637,-132,-233,-85,67,-61,-193
1,347094,-1427,366,-637,-132,-233,-85,67,-61,-193
1,347099,-1427,366,-637,-132,-233,-85,67,-61,-193
1,347105,-1427,366,-637,-132,-233,-85,67,-61,-193
1,347112,-1426,366,-639,-128,-231,-89,67,-61,-193
1,347117,-1426,366,-639,-128,-231,-89,67,-61,-193
1,347123,-1426,366,-639,-128,-231,-89,67,-61,-193
1,347129,-1426,368,-641,-130,-228,-97,67,-61,-193
1,347136,-1426,368,-641,-130,-228,-97,67,-61,-193
1,347142,-1426,368,-641,-130,-228,-97,67,-61,-193
1,347147,-1426,365,-633,-132,-232,-95,70,-61,-193
1,347155,-1426,365,-633,-132,-232,-95,70,-54,-200
1,347162,-1426,365,-633,-132,-232,-95,70,-54,-200
1,347168,-1426,369,-632,-130,-229,-86,70,-54,-200
1,347174,-1426,369,-632,-130,-229,-86,70,-54,-200
1,347182,-1426,369,-632,-130,-229,-86,70,-54,-200
1,347188,-1427,369,-641,-133,-230,-84,70,-54,-200
1,347194,-1427,369,-641,-133,-230,-84,70,-54,-200
1,347200,-1427,369,-641,-133,-230,-84,70,-54,-200
1,347205,-1427,369,-641,-133,-230,-84,70,-54,-200
1,347211,-1425,366,-642,-131,-226,-95,70,-54,-200
1,347216,-1425,366,-642,-131,-226,-95,70,-54,-200
1,347222,-1425,366,-642,-131,-226,-95,70,-54,-200
1,347228,-1426,367,-639,-128,-235,-89,70,-54,-200
1,347233,-1426,367,-639,-128,-235,-89,70,-54,-200
1,347238,-1426,367,-639,-128,-235,-89,70,-54,-200
1,347244,-1426,367,-639,-128,-235,-89,70,-54,-200
1,347250,-1428,367,-635,-130,-229,-96,70,-54,-200
1,347258,-1428,367,-635,-130,-229,-96,70,-54,-200
1,347265,-1428,367,-635,-130,-229,-96,70,-54,-200
1,347271,-1427,368,-635,-133,-225,-92,64,-58,-192
1,347276,-1427,368,-635,-133,-225,-92,64,-58,-192
1,347281,-1427,368,-635,-133,-225,-92,64,-58,-192
1,347287,-1424,367,-642,-129,-227,-93,64,-58,-192
1,347293,-1424,367,-642,-129,-227,-93,64,-58,-192
1,347299,-1424,367,-642,-129,-227,-93,64,-58,-192
1,347304,-1424,367,-642,-129,-227,-93,64,-58,-192
1,347310,-1425,369,-639,-131,-228,-93,64,-58,-192
1,347316,-1425,369,-639,-131,-228,-93,64,-58,-192
1,347321,-1425,369,-639,-131,-228,-93,64,-58,-192
1,347327,-1425,368,-640,-130,-228,-93,64,-58,-192
1,347333,-1425,368,-640,-130,-228,-93,64,-58,-192
1,347339,-1425,368,-640,-130,-228,-93,64,-58,-192
1,347346,-1425,368,-640,-130,-228,-93,64,-58,-192
1,347353,-1426,367,-641,-135,-234,-93,64,-58,-192
1,347359,-1426,367,-641,-135,-234,-93,64,-58,-192
1,347364,-1426,367,-641,-135,-234,-93,64,-58,-192
1,347371,-1427,370,-638,-133,-240,-96,64,-58,-192
1,347376,-1427,370,-638,-133,-240,-96,64,-58,-192
1,347382,-1427,370,-638,-133,-240,-96,64,-58,-192
1,347388,-1427,368,-637,-128,-235,-94,65,-49,-193
1,347396,-1427,368,-637,-128,-235,-94,65,-49,-193
1,347402,-1427,368,-637,-128,-235,-94,65,-49,-193
1,347409,-1426,366,-638,-127,-231,-88,65,-49,-193
1,347416,-1426,366,-638,-127,-231,-88,65,-49,-193
1,347422,-1426,366,-638,-127,-231,-88,65,-49,-193
1,347428,-1426,370,-643,-130,-235,-90,65,-49,-193
1,347435,-1426,370,-643,-130,-235,-90,65,-49,-193
1,347442,-1426,370,-643,-130,-235,-90,65,-49,-193
1,347447,-1426,370,-643,-130,-235,-90,65,-49,-193
1,347453,-1421,366,-642,-133,-235,-94,65,-49,-193
1,347459,-1421,366,-642,-133,-235,-94,65,-49,-193
1,347465,-1421,366,-642,-133,-235,-94,65,-49,-193
1,347470,-1425,365,-639,-132,-229,-94,65,-49,-193
1,347475,-1425,365,-639,-132,-229,-94,65,-49,-193
1,347481,-1425,365,-639,-132,-229,-94,65,-49,-193
1,347487,-1425,365,-639,-132,-229,-94,65,-49,-193
1,347492,-1421,368,-635,-135,-229,-93,65,-49,-193
1,347497,-1421,368,-635,-135,-229,-93,65,-49,-193
1,347502,-1421,368,-635,-135,-229,-93,65,-49,-193
1,347508,-1427,366,-637,-135,-226,-90,69,-51,-203
1,347513,-1427,366,-637,-135,-226,-90,69,-51,-203
1,347520,-1427,366,-637,-135,-226,-90,69,-51,-203
1,347526,-1427,366,-637,-135,-226,-90,69,-51,-203
1,347532,-1425,365,-635,-138,-231,-98,69,-51,-203
1,347537,-1425,365,-635,-138,-231,-98,69,-51,-203
1,347542,-1425,365,-635,-138,-231,-98,69,-51,-203
1,347547,-1423,370,-637,-137,-231,-88,69,-51,-203
1,347553,-1423,370,-637,-137,-231,-88,69,-51,-203
1,347558,-1423,370,-637,-137,-231,-88,69,-51,-203
1,347564,-1423,370,-637,-137,-231,-88,69,-51,-203
1,347571,-1428,366,-633,-134,-229,-92,69,-51,-203
1,347576,-1428,366,-633,-134,-229,-92,69,-51,-203
1,347582,-1428,366,-633,-134,-229,-92,69,-51,-203
1,347587,-1428,366,-633,-134,-229,-92,69,-51,-203
1,347592,-1427,366,-640,-134,-237,-93,69,-51,-203
1,347597,-1427,366,-640,-134,-237,-93,69,-51,-203
1,347602,-1427,366,-640,-134,-237,-93,69,-51,-203
1,347609,-1422,366,-639,-136,-240,-87,69,-51,-203
1,347615,-1422,366,-639,-136,-240,-87,69,-51,-203
1,347621,-1422,366,-639,-136,-240,-87,69,-51,-203
1,347626,-1422,366,-639,-136,-240,-87,69,-51,-203
1,347632,-1424,366,-636,-132,-234,-89,66,-50,-190
1,347638,-1424,366,-636,-132,-234,-89,66,-50,-190
1,347644,-1424,366,-636,-132,-234,-89,66,-50,-190
1,347650,-1421,366,-638,-131,-232,-94,66,-50,-190
1,347655,-1421,366,-638,-131,-232,-94,66,-50,-190
1,347661,-1421,366,-638,-131,-232,-94,66,-50,-190
1,347667,-1426,367,-642,-132,-237,-89,66,-50,-190
1,347673,-1426,367,-642,-132,-237,-89,66,-50,-190
1,347679,-1426,367,-642,-132,-237,-89,66,-50,-190
1,347684,-1426,367,-642,-132,-237,-89,66,-50,-190
1,347689,-1424,366,-640,-135,-242,-75,66,-50,-190
1,347696,-1424,366,-640,-135,-242,-75,66,-50,-190
1,347701,-1424,366,-640,-135,-242,-75,66,-50,-190
1,347707,-1424,366,-640,-135,-242,-75,66,-50,-190
1,347712,-1427,369,-642,-131,-234,-93,66,-50,-190
1,347717,-1427,369,-642,-131,-234,-93,66,-50,-190
1,347722,-1427,369,-642,-131,-234,-93,66,-50,-190
1,347729,-1425,367,-637,-132,-230,-93,66,-50,-190
1,347735,-1425,367,-637,-132,-230,-93,66,-50,-190
1,347740,-1425,367,-637,-132,-230,-93,66,-50,-190
1,347746,-1425,367,-637,-132,-230,-93,66,-50,-190
1,347751,-1426,369,-633,-135,-237,-91,59,-63,-193
1,347757,-1426,369,-633,-135,-237,-91,59,-63,-193
1,347763,-1426,369,-633,-135,-237,-91,59,-63,-193
1,347769,-1426,370,-637,-135,-240,-92,59,-63,-193
1,347776,-1426,370,-637,-135,-240,-92,59,-63,-193
1,347782,-1426,370,-637,-135,-240,-92,59,-63,-193
1,347789,-1424,367,-630,-134,-227,-92,59,-63,-193
1,347794,-1424,367,-630,-134,-227,-92,59,-63,-193
1,347800,-1424,367,-630,-134,-227,-92,59,-63,-193
1,347805,-1424,367,-630,-134,-227,-92,59,-63,-193
1,347811,-1426,370,-635,-136,-230,-91,59,-63,-193
1,347816,-1426,370,-635,-136,-230,-91,59,-63,-193
1,347823,-1426,370,-635,-136,-230,-91,59,-63,-193
1,347828,-1426,367,-639,-140,-230,-93,59,-63,-193
1,347835,-1426,367,-639,-140,-230,-93,59,-63,-193
1,347841,-1426,367,-639,-140,-230,-93,59,-63,-193
1,347846,-1426,367,-639,-140,-230,-93,59,-63,-193
1,347851,-1423,368,-640,-136,-234,-91,59,-63,-193
1,347856,-1423,368,-640,-136,-234,-91,59,-63,-193
1,347863,-1423,368,-640,-136,-234,-91,59,-63,-193
1,347869,-1425,370,-639,-133,-229,-92,59,-63,-193
1,347874,-1425,370,-639,-133,-229,-92,59,-63,-193
1,347880,-1425,370,-639,-133,-229,-92,59,-63,-193
1,347885,-1425,370,-639,-133,-229,-92,59,-63,-193
1,347891,-1425,368,-633,-132,-232,-93,63,-61,-191
1,347896,-1425,368,-633,-132,-232,-93,63,-61,-191
1,347904,-1425,368,-633,-132,-232,-93,63,-61,-191
1,347909,-1425,370,-642,-130,-236,-94,63,-61,-191
1,347915,-1425,370,-642,-130,-236,-94,63,-61,-191
1,347920,-1425,370,-642,-130,-236,-94,63,-61,-191
1,347925,-1425,370,-642,-130,-236,-94,63,-61,-191
1,347931,-1426,369,-636,-133,-231,-96,63,-61,-191
1,347936,-1426,369,-636,-133,-231,-96,63,-61,-191
1,347942,-1426,369,-636,-133,-231,-96,63,-61,-191
1,347949,-1424,369,-638,-137,-236,-96,63,-61,-191
1,347954,-1424,369,-638,-137,-236,-96,63,-61,-191
1,347961,-1424,369,-638,-137,-236,-96,63,-61,-191
1,347966,-1424,369,-638,-137,-236,-96,63,-61,-191
1,347972,-1425,366,-634,-134,-235,-86,63,-61,-191
1,347978,-1425,366,-634,-134,-235,-86,63,-61,-191
1,347984,-1425,366,-634,-134,-235,-86,63,-61,-191
1,347990,-1424,369,-633,-134,-231,-94,63,-61,-191
1,347995,-1424,369,-633,-134,-231,-94,63,-61,-191
1,348001,-1424,369,-633,-134,-231,-94,63,-61,-191
1,348007,-1424,369,-633,-134,-231,-94,63,-61,-191
1,348012,-1422,368,-632,-135,-240,-88,69,-49,-191
1,348018,-1422,368,-632,-135,-240,-88,69,-49,-191
1,348024,-1422,368,-632,-135,-240,-88,69,-49,-191
1,348030,-1427,366,-636,-135,-239,-91,69,-49,-191
1,348037,-1427,366,-636,-135,-239,-91,69,-49,-191
1,348042,-1427,366,-636,-135,-239,-91,69,-49,-191
1,348047,-1427,366,-636,-135,-239,-91,69,-49,-191
1,348053,-1426,365,-640,-131,-226,-96,69,-49,-191
1,348059,-1426,365,-640,-131,-226,-96,69,-49,-191
1,348064,-1426,365,-640,-131,-226,-96,69,-49,-191
1,348070,-1424,368,-637,-129,-236,-91,69,-49,-191
1,348076,-1424,368,-637,-129,-236,-91,69,-49,-191
1,348083,-1424,368,-637,-129,-236,-91,69,-49,-191
1,348088,-1424,366,-639,-125,-240,-98,69,-49,-191
1,348095,-1424,366,-639,-125,-240,-98,69,-49,-191
1,348100,-1424,366,-639,-125,-240,-98,69,-49,-191
1,348106,-1424,366,-639,-125,-240,-98,69,-49,-191
1,348111,-1428,367,-642,-135,-228,-91,69,-49,-191
1,348116,-1428,367,-642,-135,-228,-91,69,-49,-191
1,348122,-1428,367,-642,-135,-228,-91,69,-49,-191
1,348128,-1428,367,-642,-135,-228,-91,69,-49,-191
1,348134,-1428,368,-631,-137,-225,-87,61,-59,-191
1,348139,-1428,368,-631,-137,-225,-87,61,-59,-191
1,348144,-1428,368,-631,-137,-225,-87,61,-59,-191
1,348150,-1427,369,-640,-133,-233,-92,61,-59,-191
1,348155,-1427,369,-640,-133,-233,-92,61,-59,-191
1,348162,-1427,369,-640,-133,-233,-92,61,-59,-191
1,348167,-1427,369,-640,-133,-233,-92,61,-59,-191
1,348172,-1427,366,-641,-131,-234,-94,61,-59,-191
1,348179,-1427,366,-641,-131,-234,-94,61,-59,-191
1,348184,-1427,366,-641,-131,-234,-94,61,-59,-191
1,348189,-1425,367,-636,-140,-240,-90,61,-59,-191
1,348195,-1425,367,-636,-140,-240,-90,61,-59,-191
1,348200,-1425,367,-636,-140,-240,-90,61,-59,-191
1,348207,-1425,367,-636,-140,-240,-90,61,-59,-191
1,348213,-1429,367,-634,-135,-231,-89,61,-59,-191
1,348218,-1429,367,-634,-135,-231,-89,61,-59,-191
1,348223,-1429,367,-634,-135,-231,-89,61,-59,-191
1,348228,-1429,367,-634,-135,-231,-89,61,-59,-191
1,348233,-1426,368,-635,-133,-223,-90,61,-59,-191
1,348238,-1426,368,-635,-133,-223,-90,61,-59,-191
1,348244,-1426,368,-635,-133,-223,-90,61,-59,-191
1,348251,-1426,369,-636,-133,-233,-88,60,-48,-194
1,348256,-1426,369,-636,-133,-233,-88,60,-48,-194
1,348262,-1426,369,-636,-133,-233,-88,60,-48,-194
1,348267,-1426,369,-636,-133,-233,-88,60,-48,-194
1,348273,-1427,367,-636,-130,-240,-93,60,-48,-194
1,348279,-1427,367,-636,-130,-240,-93,60,-48,-194
1,348284,-1427,367,-636,-130,-240,-93,60,-48,-194
1,348291,-1426,368,-641,-130,-233,-91,60,-48,-194
1,348296,-1426,368,-641,-130,-233,-91,60,-48,-194
1,348302,-1426,368,-641,-130,-233,-91,60,-48,-194
1,348307,-1426,368,-641,-130,-233,-91,60,-48,-194
1,348313,-1427,368,-643,-129,-231,-91,60,-48,-194
1,348318,-1427,368,-643,-129,-231,-91,60,-48,-194
1,348323,-1427,368,-643,-129,-231,-91,60,-48,-194
1,348329,-1427,368,-636,-139,-233,-89,60,-48,-194
1,348335,-1427,368,-636,-139,-233,-89,60,-48,-194
1,348340,-1427,368,-636,-139,-233,-89,60,-48,-194
1,348346,-1427,368,-636,-139,-233,-89,60,-48,-194
1,348351,-1423,369,-632,-131,-230,-94,60,-48,-194
1,348356,-1423,369,-632,-131,-230,-94,60,-48,-194
1,348361,-1423,369,-632,-131,-230,-94,60,-48,-194
1,348367,-1423,369,-632,-131,-230,-94,60,-48,-194
1,348372,-1422,367,-635,-129,-224,-88,68,-48,-198
1,348379,-1422,367,-635,-129,-224,-88,68,-48,-198
1,348384,-1422,367,-635,-129,-224,-88,68,-48,-198
1,348389,-1426,368,-638,-127,-227,-86,68,-48,-198
1,348394,-1426,368,-638,-127,-227,-86,68,-48,-198
1,348399,-1426,368,-638,-127,-227,-86,68,-48,-198
1,348404,-1426,368,-638,-127,-227,-86,68,-48,-198
1,348409,-1425,368,-639,-131,-237,-90,68,-48,-198
1,348416,-1425,368,-639,-131,-237,-90,68,-48,-198
1,348421,-1425,368,-639,-131,-237,-90,68,-48,-198
1,348426,-1425,368,-639,-131,-237,-90,68,-48,-198
1,348432,-1426,368,-639,-143,-235,-93,68,-48,-198
1,348437,-1426,368,-639,-143,-235,-93,68,-48,-198
1,348443,-1426,368,-639,-143,-235,-93,68,-48,-198
1,348448,-1429,366,-639,-133,-235,-94,68,-48,-198
1,348454,-1429,366,-639,-133,-235,-94,68,-48,-198
1,348460,-1429,366,-639,-133,-235,-94,68,-48,-198
1,348465,-1429,366,-639,-133,-235,-94,68,-48,-198
1,348470,-1426,367,-636,-133,-230,-89,68,-48,-198
1,348475,-1426,367,-636,-133,-230,-89,68,-48,-198
1,348480,-1426,367,-636,-133,-230,-89,68,-48,-198
1,348486,-1426,367,-636,-133,-230,-89,68,-48,-198
1,348491,-1428,367,-633,-134,-234,-88,59,-51,-187
1,348497,-1428,367,-633,-134,-234,-88,59,-51,-187
1,348504,-1428,367,-633,-134,-234,-88,59,-51,-187
1,348509,-1426,365,-634,-140,-233,-93,59,-51,-187
1,348514,-1426,365,-634,-140,-233,-93,59,-51,-187
1,348519,-1426,365,-634,-140,-233,-93,59,-51,-187
1,348524,-1426,365,-634,-140,-233,-93,59,-51,-187
1,348529,-1426,367,-637,-133,-236,-97,59,-51,-187
1,348535,-1426,367,-637,-133,-236,-97,59,-51,-187
1,348540,-1426,367,-637,-133,-236,-97,59,-51,-187
1,348546,-1426,367,-637,-133,-236,-97,59,-51,-187
1,348552,-1422,365,-638,-129,-226,-92,59,-51,-187
1,348557,-1422,365,-638,-129,-226,-92,59,-51,-187
1,348562,-1422,365,-638,-129,-226,-92,59,-51,-187
1,348569,-1426,367,-639,-128,-231,-97,59,-51,-187
1,348575,-1426,367,-639,-128,-231,-97,59,-51,-187
1,348581,-1426,367,-639,-128,-231,-97,59,-51,-187
1,348587,-1426,367,-639,-128,-231,-97,59,-51,-187
1,348592,-1425,365,-641,-132,-234,-93,59,-51,-187
1,348597,-1425,365,-641,-132,-234,-93,59,-51,-187
1,348603,-1425,365,-641,-132,-234,-93,59,-51,-187
1,348608,-1425,365,-641,-132,-234,-93,59,-51,-187
1,348614,-1426,369,-642,-133,-234,-97,59,-51,-187
1,348619,-1426,369,-642,-133,-234,-97,59,-51,-187
1,348624,-1426,369,-642,-133,-234,-97,59,-51,-187
1,348631,-1430,369,-637,-129,-235,-84,67,-63,-207
1,348636,-1430,369,-637,-129,-235,-84,67,-63,-207
1,348641,-1430,369,-637,-129,-235,-84,67,-63,-207
1,348647,-1430,369,-637,-129,-235,-84,67,-63,-207
1,348652,-1426,367,-637,-133,-229,-92,67,-63,-207
1,348658,-1426,367,-637,-133,-229,-92,67,-63,-207
1,348663,-1426,367,-637,-133,-229,-92,67,-63,-207
1,348668,-1425,369,-638,-129,-223,-89,67,-63,-207
1,348675,-1425,369,-638,-129,-223,-89,67,-63,-207
1,348680,-1425,369,-638,-129,-223,-89,67,-63,-207
1,348685,-1425,369,-638,-129,-223,-89,67,-63,-207
1,348690,-1426,366,-634,-138,-237,-88,67,-63,-207
1,348696,-1426,366,-634,-138,-237,-88,67,-63,-207
1,348701,-1426,366,-634,-138,-237,-88,67,-63,-207
1,348706,-1426,366,-634,-138,-237,-88,67,-63,-207
1,348712,-1425,365,-638,-133,-234,-91,67,-63,-207
1,348718,-1425,365,-638,-133,-234,-91,67,-63,-207
1,348724,-1425,365,-638,-133,-234,-91,67,-63,-207
1,348730,-1425,368,-634,-125,-240,-84,67,-63,-207
1,348736,-1425,368,-634,-125,-240,-84,67,-63,-207
1,348740,-1425,368,-634,-125,-240,-84,67,-63,-207
1,348746,-1425,368,-634,-125,-240,-84,67,-63,-207
1,348750,-1426,368,-638,-131,-234,-98,66,-48,-194
1,348756,-1426,368,-638,-131,-234,-98,66,-48,-194
1,348763,-1426,368,-638,-131,-234,-98,66,-48,-194
1,348767,-1426,368,-638,-131,-234,-98,66,-48,-194
1,348772,-1427,367,-636,-135,-230,-92,66,-48,-194
1,348778,-1427,367,-636,-135,-230,-92,66,-48,-194
1,348783,-1427,367,-636,-135,-230,-92,66,-48,-194
1,348788,-1427,367,-636,-135,-230,-92,66,-48,-194
1,348793,-1428,367,-637,-134,-228,-88,66,-48,-194
1,348798,-1428,367,-637,-134,-228,-88,66,-48,-194
1,348804,-1428,367,-637,-134,-228,-88,66,-48,-194
1,348810,-1425,363,-638,-132,-222,-90,66,-48,-194
1,348815,-1425,363,-638,-132,-222,-90,66,-48,-194
1,348821,-1425,363,-638,-132,-222,-90,66,-48,-194
1,348826,-1425,363,-638,-132,-222,-90,66,-48,-194
1,348831,-1427,369,-636,-136,-223,-87,66,-48,-194
1,348837,-1427,369,-636,-136,-223,-87,66,-48,-194
1,348843,-1427,369,-636,-136,-223,-87,66,-48,-194
1,348848,-1427,369,-636,-136,-223,-87,66,-48,-194
1,348853,-1425,369,-638,-129,-229,-87,66,-48,-194
1,348858,-1425,369,-638,-129,-229,-87,66,-48,-194
1,348863,-1425,369,-638,-129,-229,-87,66,-48,-194
1,348868,-1425,369,-638,-129,-229,-87,66,-48,-194
1,348874,-1424,367,-640,-126,-235,-91,62,-58,-198
1,348879,-1424,367,-640,-126,-235,-91,62,-58,-198
1,348886,-1424,367,-640,-126,-235,-91,62,-58,-198
1,348891,-1428,366,-637,-127,-230,-86,62,-58,-198
1,348896,-1428,366,-637,-127,-230,-86,62,-58,-198
1,348901,-1428,366,-637,-127,-230,-86,62,-58,-198
1,348907,-1428,366,-637,-127,-230,-86,62,-58,-198
1,348912,-1425,366,-642,-129,-230,-87,62,-58,-198
1,348918,-1425,366,-642,-129,-230,-87,62,-58,-198
1,348923,-1425,366,-642,-129,-230,-87,62,-58,-198
1,348930,-1424,369,-640,-132,-225,-95,62,-58,-198
1,348936,-1424,369,-640,-132,-225,-95,62,-58,-198
1,348941,-1424,369,-640,-132,-225,-95,62,-58,-198
1,348946,-1424,369,-640,-132,-225,-95,62,-58,-198
1,348951,-1428,367,-640,-129,-226,-88,62,-58,-198
1,348956,-1428,367,-640,-129,-226,-88,62,-58,-198
1,348962,-1428,367,-640,-129,-226,-88,62,-58,-198
1,348967,-1428,367,-640,-129,-226,-88,62,-58,-198
1,348973,-1425,368,-640,-135,-230,-94,62,-58,-198
1,348980,-1425,368,-640,-135,-230,-94,62,-58,-198
1,348985,-1425,368,-640,-135,-230,-94,62,-58,-198
1,348991,-1423,367,-634,-135,-228,-89,58,-58,-190
1,348997,-1423,367,-634,-135,-228,-89,58,-58,-190
1,349004,-1423,367,-634,-135,-228,-89,58,-58,-190
1,349011,-1421,368,-641,-130,-240,-94,58,-58,-190
1,349018,-1421,368,-641,-130,-240,-94,58,-58,-190
1,349024,-1421,368,-641,-130,-240,-94,58,-58,-190
1,349030,-1425,367,-637,-130,-224,-98,58,-58,-190
1,349036,-1425,367,-637,-130,-224,-98,58,-58,-190
1,349042,-1425,367,-637,-130,-224,-98,58,-58,-190
1,349048,-1425,367,-637,-130,-224,-98,58,-58,-190
1,349053,-1425,369,-641,-129,-220,-96,58,-58,-190
1,349060,-1425,369,-641,-129,-220,-96,58,-58,-190
1,349065,-1425,369,-641,-129,-220,-96,58,-58,-190
1,349071,-1425,366,-642,-132,-226,-91,58,-58,-190
1,349076,-1425,366,-642,-132,-226,-91,58,-58,-190
1,349081,-1425,366,-642,-132,-226,-91,58,-58,-190
1,349087,-1425,366,-642,-132,-226,-91,58,-58,-190
1,349092,-1426,365,-644,-140,-223,-95,58,-58,-190
1,349097,-1426,365,-644,-140,-223,-95,58,-58,-190
1,349104,-1426,365,-644,-140,-223,-95,58,-58,-190
1,349109,-1426,365,-644,-140,-223,-95,58,-58,-190
1,349114,-1426,366,-635,-133,-226,-87,64,-50,-192
1,349120,-1426,366,-635,-133,-226,-87,64,-50,-192
1,349125,-1426,366,-635,-133,-226,-87,64,-50,-192
1,349130,-1425,367,-634,-129,-227,-86,64,-50,-192
1,349135,-1425,367,-634,-129,-227,-86,64,-50,-192
1,349140,-1425,367,-634,-129,-227,-86,64,-50,-192
1,349147,-1425,367,-634,-129,-227,-86,64,-50,-192
1,349151,-1425,367,-635,-132,-232,-92,64,-50,-192
1,349157,-1425,367,-635,-132,-232,-92,64,-50,-192
1,349162,-1425,367,-635,-132,-232,-92,64,-50,-192
1,349168,-1425,367,-635,-132,-232,-92,64,-50,-192
1,349172,-1424,363,-638,-138,-227,-103,64,-50,-192
1,349178,-1424,363,-638,-138,-227,-103,64,-50,-192
1,349184,-1424,363,-638,-138,-227,-103,64,-50,-192
1,349190,-1427,370,-642,-135,-228,-89,64,-50,-192
1,349195,-1427,370,-642,-135,-228,-89,64,-50,-192
1,349201,-1427,370,-642,-135,-228,-89,64,-50,-192
1,349206,-1427,370,-642,-135,-228,-89,64,-50,-192
1,349211,-1427,366,-639,-133,-231,-88,64,-50,-192
1,349216,-1427,366,-639,-133,-231,-88,64,-50,-192
1,349222,-1427,366,-639,-133,-231,-88,64,-50,-192
1,349229,-1427,366,-639,-133,-231,-88,64,-50,-192
1,349234,-1427,367,-641,-131,-231,-87,64,-50,-192
1,349240,-1427,367,-641,-131,-231,-87,64,-50,-192
1,349245,-1427,367,-641,-131,-231,-87,64,-50,-192
1,349251,-1427,367,-639,-130,-228,-93,64,-56,-190
1,349256,-1427,367,-639,-130,-228,-93,64,-56,-190
1,349261,-1427,367,-639,-130,-228,-93,64,-56,-190
1,349267,-1427,367,-639,-130,-228,-93,64,-56,-190
1,349273,-1423,366,-634,-129,-228,-94,64,-56,-190
1,349279,-1423,366,-634,-129,-228,-94,64,-56,-190
1,349284,-1423,366,-634,-129,-228,-94,64,-56,-190
1,349290,-1425,369,-643,-132,-230,-89,64,-56,-190
1,349295,-1425,369,-643,-132,-230,-89,64,-56,-190
1,349300,-1425,369,-643,-132,-230,-89,64,-56,-190
1,349305,-1425,369,-643,-132,-230,-89,64,-56,-190
1,349312,-1425,367,-638,-132,-233,-86,64,-56,-190
1,349317,-1425,367,-638,-132,-233,-86,64,-56,-190
1,349322,-1425,367,-638,-132,-233,-86,64,-56,-190
1,349328,-1425,367,-638,-132,-233,-86,64,-56,-190
1,349333,-1428,365,-640,-130,-235,-94,64,-56,-190
1,349338,-1428,365,-640,-130,-235,-94,64,-56,-190
1,349344,-1428,365,-640,-130,-235,-94,64,-56,-190
1,349348,-1428,365,-640,-130,-235,-94,64,-56,-190
1,349355,-1426,366,-640,-128,-230,-90,64,-56,-190
1,349360,-1426,366,-640,-128,-230,-90,64,-56,-190
1,349366,-1426,366,-640,-128,-230,-90,64,-56,-190
1,349371,-1426,368,-637,-131,-222,-94,79,-59,-195
1,349377,-1426,368,-637,-131,-222,-94,79,-59,-195
1,349382,-1426,368,-637,-131,-222,-94,79,-59,-195
1,349387,-1426,368,-637,-131,-222,-94,79,-59,-195
1,349393,-1426,368,-637,-131,-222,-94,79,-59,-195
1,349399,-1426,368,-637,-131,-222,-94,79,-59,-195
1,349404,-1426,368,-637,-131,-222,-94,79,-59,-195
1,349410,-1425,368,-639,-129,-226,-87,79,-59,-195
1,349415,-1425,368,-639,-129,-226,-87,79,-59,-195
1,349421,-1425,368,-639,-129,-226,-87,79,-59,-195
1,349428,-1425,368,-639,-129,-226,-87,79,-59,-195
1,349433,-1428,368,-640,-139,-230,-89,79,-59,-195
1,349438,-1428,368,-640,-139,-230,-89,79,-59,-195
1,349445,-1428,368,-640,-139,-230,-89,79,-59,-195
1,349450,-1426,366,-634,-133,-230,-89,79,-59,-195
1,349455,-1426,366,-634,-133,-230,-89,79,-59,-195
1,349461,-1426,366,-634,-133,-230,-89,79,-59,-195
1,349466,-1426,366,-634,-133,-230,-89,79,-59,-195
1,349471,-1425,366,-636,-132,-232,-94,79,-59,-195
1,349476,-1425,366,-636,-132,-232,-94,79,-59,-195
1,349481,-1425,366,-636,-132,-232,-94,79,-59,-195
1,349487,-1425,366,-636,-132,-232,-94,79,-59,-195
1,349493,-1427,366,-636,-136,-231,-99,65,-65,-197
1,349498,-1427,366,-636,-136,-231,-99,65,-65,-197
1,349503,-1427,366,-636,-136,-231,-99,65,-65,-197
1,349508,-1427,366,-636,-136,-231,-99,65,-65,-197
1,349514,-1425,366,-640,-134,-232,-97,65,-65,-197
1,349519,-1425,366,-640,-134,-232,-97,65,-65,-197
1,349524,-1425,366,-640,-134,-232,-97,65,-65,-197
1,349531,-1427,368,-631,-132,-234,-84,65,-65,-197
1,349537,-1427,368,-631,-132,-234,-84,65,-65,-197
1,349542,-1427,368,-631,-132,-234,-84,65,-65,-197
1,349547,-1427,368,-631,-132,-234,-84,65,-65,-197
1,349552,-1423,367,-632,-130,-231,-88,65,-65,-197
1,349557,-1423,367,-632,-130,-231,-88,65,-65,-197
1,349563,-1423,367,-632,-130,-231,-88,65,-65,-197
1,349570,-1423,367,-632,-130,-231,-88,65,-65,-197
1,349575,-1425,367,-636,-126,-229,-95,65,-65,-197
1,349580,-1425,367,-636,-126,-229,-95,65,-65,-197
1,349585,-1425,367,-636,-126,-229,-95,65,-65,-197
1,349591,-1428,366,-639,-131,-227,-95,65,-65,-197
1,349596,-1428,366,-639,-131,-227,-95,65,-65,-197
1,349601,-1428,366,-639,-131,-227,-95,65,-65,-197
1,349607,-1428,366,-639,-131,-227,-95,65,-65,-197
1,349613,-1426,369,-632,-125,-235,-95,63,-57,-203
1,349618,-1426,369,-632,-125,-235,-95,63,-57,-203
1,349623,-1426,369,-632,-125,-235,-95,63,-57,-203
1,349629,-1426,369,-632,-125,-235,-95,63,-57,-203
1,349634,-1422,367,-631,-130,-236,-91,63,-57,-203
1,349640,-1422,367,-631,-130,-236,-91,63,-57,-203
1,349645,-1422,367,-631,-130,-236,-91,63,-57,-203
1,349650,-1425,368,-637,-138,-228,-95,63,-57,-203
1,349656,-1425,368,-637,-138,-228,-95,63,-57,-203
1,349661,-1425,368,-637,-138,-228,-95,63,-57,-203
1,349666,-1425,368,-637,-138,-228,-95,63,-57,-203
1,349671,-1428,364,-637,-130,-228,-94,63,-57,-203
1,349677,-1428,364,-637,-130,-228,-94,63,-57,-203
1,349683,-1428,364,-637,-130,-228,-94,63,-57,-203
1,349688,-1428,364,-637,-130,-228,-94,63,-57,-203
1,349694,-1425,367,-640,-129,-230,-88,63,-57,-203
1,349700,-1425,367,-640,-129,-230,-88,63,-57,-203
1,349705,-1425,367,-640,-129,-230,-88,63,-57,-203
1,349711,-1425,366,-637,-135,-228,-90,63,-57,-203
1,349716,-1425,366,-637,-135,-228,-90,63,-57,-203
1,349721,-1425,366,-637,-135,-228,-90,63,-57,-203
1,349727,-1425,366,-637,-135,-228,-90,63,-57,-203
1,349732,-1427,366,-639,-129,-233,-89,60,-70,-192
1,349737,-1427,366,-639,-129,-233,-89,60,-70,-192
1,349744,-1427,366,-639,-129,-233,-89,60,-70,-192
1,349749,-1427,366,-639,-129,-233,-89,60,-70,-192
1,349754,-1425,366,-639,-128,-235,-84,60,-70,-192
1,349759,-1425,366,-639,-128,-235,-84,60,-70,-192
1,349765,-1425,366,-639,-128,-235,-84,60,-70,-192
1,349770,-1424,364,-634,-130,-230,-90,60,-70,-192
1,349776,-1424,364,-634,-130,-230,-90,60,-70,-192
1,349782,-1424,364,-634,-130,-230,-90,60,-70,-192
1,349787,-1424,364,-634,-130,-230,-90,60,-70,-192
1,349792,-1426,366,-639,-135,-231,-91,60,-70,-192
1,349797,-1426,366,-639,-135,-231,-91,60,-70,-192
1,349803,-1426,366,-639,-135,-231,-91,60,-70,-192
1,349808,-1426,366,-639,-135,-231,-91,60,-70,-192
1,349813,-1425,367,-637,-136,-229,-86,60,-70,-192
1,349818,-1425,367,-637,-136,-229,-86,60,-70,-192
1,349825,-1425,367,-637,-136,-229,-86,60,-70,-192
1,349830,-1428,364,-640,-132,-227,-91,60,-70,-192
1,349836,-1428,364,-640,-132,-227,-91,60,-70,-192
1,349841,-1428,364,-640,-132,-227,-91,60,-70,-192
1,349846,-1428,364,-640,-132,-227,-91,60,-70,-192
1,349852,-1426,366,-638,-127,-227,-94,61,-55,-191
1,349857,-1426,366,-638,-127,-227,-94,61,-55,-191
1,349863,-1426,366,-638,-127,-227,-94,61,-55,-191
1,349871,-1422,367,-636,-131,-233,-89,61,-55,-191
1,349877,-1422,367,-636,-131,-233,-89,61,-55,-191
1,349883,-1422,367,-636,-131,-233,-89,61,-55,-191
1,349889,-1422,367,-636,-131,-233,-89,61,-55,-191
1,349895,-1424,368,-637,-129,-232,-90,61,-55,-191
1,349901,-1424,368,-637,-129,-232,-90,61,-55,-191
1,349906,-1424,368,-637,-129,-232,-90,61,-55,-191
1,349913,-1425,369,-635,-131,-229,-96,61,-55,-191
1,349919,-1425,369,-635,-131,-229,-96,61,-55,-191
1,349925,-1425,369,-635,-131,-229,-96,61,-55,-191
1,349932,-1425,366,-637,-138,-233,-92,61,-55,-191
1,349938,-1425,366,-637,-138,-233,-92,61,-55,-191
1,349945,-1425,366,-637,-138,-233,-92,61,-55,-191
1,349952,-1426,364,-639,-132,-234,-92,61,-55,-191
1,349958,-1426,364,-639,-132,-234,-92,61,-55,-191
1,349964,-1426,364,-639,-132,-234,-92,61,-55,-191
1,349970,-1426,364,-639,-132,-234,-92,61,-55,-191
1,349975,-1429,368,-630,-132,-235,-90,61,-55,-191
1,349980,-1429,368,-630,-132,-235,-90,61,-55,-191
1,349986,-1429,368,-630,-132,-235,-90,61,-55,-191
1,349991,-1428,363,-634,-132,-235,-83,60,-54,-186
1,349997,-1428,363,-634,-132,-235,-83,60,-54,-186
1,350004,-1428,363,-634,-132,-235,-83,60,-54,-186
1,350010,-1428,363,-634,-132,-235,-83,60,-54,-186
1,350016,-1422,367,-637,-130,-238,-91,60,-54,-186
1,350021,-1422,367,-637,-130,-238,-91,60,-54,-186
1,350027,-1422,367,-637,-130,-238,-91,60,-54,-186
1,350033,-1428,366,-638,-127,-228,-94,60,-54,-186
1,350040,-1428,366,-638,-127,-228,-94,60,-54,-186
1,350046,-1428,366,-638,-127,-228,-94,60,-54,-186
1,350051,-1423,366,-642,-130,-236,-95,60,-54,-186
1,350057,-1423,366,-642,-130,-236,-95,60,-54,-186
1,350064,-1423,366,-642,-130,-236,-95,60,-54,-186
1,350071,-1425,368,-633,-127,-238,-87,60,-54,-186
1,350077,-1425,368,-633,-127,-238,-87,60,-54,-186
1,350084,-1425,368,-633,-127,-238,-87,60,-54,-186
1,350089,-1425,368,-633,-127,-238,-87,60,-54,-186
1,350095,-1424,369,-639,-129,-227,-86,60,-54,-186
1,350100,-1424,369,-639,-129,-227,-86,60,-54,-186
1,350107,-1424,369,-639,-129,-227,-86,60,-54,-186
1,350114,-1425,369,-633,-136,-227,-91,58,-48,-188
1,350120,-1425,369,-633,-136,-227,-91,58,-48,-188
1,350127,-1425,369,-633,-136,-227,-91,58,-48,-188
1,350133,-1427,367,-634,-132,-234,-93,58,-48,-188
1,350139,-1427,367,-634,-132,-234,-93,58,-48,-188
1,350145,-1427,367,-634,-132,-234,-93,58,-48,-188
1,350150,-1427,367,-634,-132,-234,-93,58,-48,-188
1,350155,-1427,366,-637,-125,-235,-96,58,-48,-188
1,350160,-1427,366,-637,-125,-235,-96,58,-48,-188
1,350167,-1427,366,-637,-125,-235,-96,58,-48,-188
1,350172,-1427,368,-634,-128,-230,-93,58,-48,-188
1,350177,-1427,368,-634,-128,-230,-93,58,-48,-188
1,350182,-1427,368,-634,-128,-230,-93,58,-48,-188
1,350188,-1427,368,-634,-128,-230,-93,58,-48,-188
1,350193,-1424,368,-639,-130,-223,-92,58,-48,-188
1,350198,-1424,368,-639,-130,-223,-92,58,-48,-188
1,350204,-1424,368,-639,-130,-223,-92,58,-48,-188
1,350210,-1424,368,-639,-130,-223,-92,58,-48,-188
1,350215,-1426,366,-638,-136,-223,-99,58,-48,-188
1,350220,-1426,366,-638,-136,-223,-99,58,-48,-188
1,350225,-1426,366,-638,-136,-223,-99,58,-48,-188
1,350230,-1427,368,-637,-134,-232,-97,73,-57,-199
1,350236,-1427,368,-637,-134,-232,-97,73,-57,-199
1,350242,-1427,368,-637,-134,-232,-97,73,-57,-199
1,350248,-1427,368,-637,-134,-232,-97,73,-57,-199
1,350254,-1426,366,-636,-138,-239,-91,73,-57,-199
1,350259,-1426,366,-636,-138,-239,-91,73,-57,-199
1,350265,-1426,366,-636,-138,-239,-91,73,-57,-199
1,350270,-1428,367,-637,-134,-235,-95,73,-57,-199
1,350276,-1428,367,-637,-134,-235,-95,73,-57,-199
1,350281,-1428,367,-637,-134,-235,-95,73,-57,-199
1,350286,-1428,367,-637,-134,-235,-95,73,-57,-199
1,350291,-1427,371,-638,-136,-232,-93,73,-57,-199
1,350297,-1427,371,-638,-136,-232,-93,73,-57,-199
1,350303,-1427,371,-638,-136,-232,-93,73,-57,-199
1,350308,-1427,371,-638,-136,-232,-93,73,-57,-199
1,350314,-1425,366,-637,-134,-233,-93,73,-57,-199
1,350319,-1425,366,-637,-134,-233,-93,73,-57,-199
1,350325,-1425,366,-637,-134,-233,-93,73,-57,-199
1,350330,-1426,369,-639,-130,-231,-93,73,-57,-199
1,350336,-1426,369,-639,-130,-231,-93,73,-57,-199
1,350342,-1426,369,-639,-130,-231,-93,73,-57,-199
1,350347,-1426,369,-639,-130,-231,-93,73,-57,-199
1,350352,-1426,369,-638,-134,-235,-94,65,-57,-193
1,350358,-1426,369,-638,-134,-235,-94,65,-57,-193
1,350363,-1426,369,-638,-134,-235,-94,65,-57,-193
1,350368,-1426,369,-638,-134,-235,-94,65,-57,-193
1,350374,-1425,366,-633,-130,-236,-101,65,-57,-193
1,350380,-1425,366,-633,-130,-236,-101,65,-57,-193
1,350386,-1425,366,-633,-130,-236,-101,65,-57,-193
1,350391,-1425,368,-639,-127,-231,-95,65,-57,-193
1,350396,-1425,368,-639,-127,-231,-95,65,-57,-193
1,350401,-1425,368,-639,-127,-231,-95,65,-57,-193
1,350406,-1425,368,-639,-127,-231,-95,65,-57,-193
1,350412,-1426,367,-640,-133,-238,-92,65,-57,-193
1,350417,-1426,367,-640,-133,-238,-92,65,-57,-193
1,350424,-1426,367,-640,-133,-238,-92,65,-57,-193
1,350430,-1426,367,-640,-133,-238,-92,65,-57,-193
1,350435,-1424,369,-643,-134,-230,-90,65,-57,-193
1,350440,-1424,369,-643,-134,-230,-90,65,-57,-193
1,350446,-1424,369,-643,-134,-230,-90,65,-57,-193
1,350452,-1425,368,-640,-136,-236,-90,65,-57,-193
1,350456,-1425,368,-640,-136,-236,-90,65,-57,-193
1,350461,-1425,368,-640,-136,-236,-90,65,-57,-193
1,350468,-1425,368,-640,-136,-236,-90,65,-57,-193
1,350474,-1428,368,-633,-138,-227,-95,67,-63,-187
1,350479,-1428,368,-633,-138,-227,-95,67,-63,-187
1,350484,-1428,368,-633,-138,-227,-95,67,-63,-187
1,350489,-1428,368,-633,-138,-227,-95,67,-63,-187
1,350494,-1424,368,-634,-136,-231,-92,67,-63,-187
1,350500,-1424,368,-634,-136,-231,-92,67,-63,-187
1,350505,-1424,368,-634,-136,-231,-92,67,-63,-187
1,350512,-1426,366,-634,-129,-231,-92,67,-63,-187
1,350517,-1426,366,-634,-129,-231,-92,67,-63,-187
1,350522,-1426,366,-634,-129,-231,-92,67,-63,-187
1,350528,-1426,366,-634,-129,-231,-92,67,-63,-187
1,350533,-1425,367,-636,-134,-231,-89,67,-63,-187
1,350538,-1425,367,-636,-134,-231,-89,67,-63,-187
1,350544,-1425,367,-636,-134,-231,-89,67,-63,-187
1,350550,-1425,367,-636,-134,-231,-89,67,-63,-187
1,350556,-1423,368,-637,-135,-229,-91,67,-63,-187
1,350562,-1423,368,-637,-135,-229,-91,67,-63,-187
1,350566,-1423,368,-637,-135,-229,-91,67,-63,-187
1,350572,-1426,366,-635,-138,-233,-86,67,-63,-187
1,350577,-1426,366,-635,-138,-233,-86,67,-63,-187
1,350582,-1426,366,-635,-138,-233,-86,67,-63,-187
1,350587,-1426,366,-635,-138,-233,-86,67,-63,-187
1,350594,-1426,369,-634,-134,-235,-89,71,-61,-187
1,350599,-1426,369,-634,-134,-235,-89,71,-61,-187
1,350604,-1426,369,-634,-134,-235,-89,71,-61,-187
1,350609,-1426,369,-634,-134,-235,-89,71,-61,-187
1,350614,-1426,368,-637,-128,-232,-94,71,-61,-187
1,350620,-1426,368,-637,-128,-232,-94,71,-61,-187
1,350626,-1426,368,-637,-128,-232,-94,71,-61,-187
1,350631,-1424,365,-638,-133,-229,-95,71,-61,-187
1,350639,-1424,365,-638,-133,-229,-95,71,-61,-187
1,350644,-1424,365,-638,-133,-229,-95,71,-61,-187
1,350650,-1424,365,-638,-133,-229,-95,71,-61,-187
1,350655,-1423,367,-639,-129,-227,-90,71,-61,-187
1,350660,-1423,367,-639,-129,-227,-90,71,-61,-187
1,350666,-1423,367,-639,-129,-227,-90,71,-61,-187
1,350671,-1424,369,-639,-129,-234,-91,71,-61,-187
1,350676,-1424,369,-639,-129,-234,-91,71,-61,-187
1,350683,-1424,369,-639,-129,-234,-91,71,-61,-187
1,350688,-1424,369,-639,-129,-234,-91,71,-61,-187
1,350694,-1426,368,-637,-126,-233,-98,71,-61,-187
1,350699,-1426,368,-637,-126,-233,-98,71,-61,-187
1,350704,-1426,368,-637,-126,-233,-98,71,-61,-187
1,350709,-1426,368,-637,-126,-233,-98,71,-61,-187
1,350714,-1427,368,-638,-130,-234,-86,71,-61,-187
1,350720,-1427,368,-638,-130,-234,-86,71,-61,-187
1,350726,-1427,368,-638,-130,-234,-86,71,-61,-187
1,350731,-1427,368,-638,-130,-234,-86,71,-61,-187
1,350736,-1425,367,-639,-130,-222,-90,62,-56,-196
1,350742,-1425,367,-639,-130,-222,-90,62,-56,-196
1,350748,-1425,367,-639,-130,-222,-90,62,-56,-196
1,350754,-1423,368,-635,-129,-222,-96,62,-56,-196
1,350759,-1423,368,-635,-129,-222,-96,62,-56,-196
1,350766,-1423,368,-635,-129,-222,-96,62,-56,-196
1,350771,-1425,364,-639,-132,-234,-93,62,-56,-196
1,350776,-1425,364,-639,-132,-234,-93,62,-56,-196
1,350781,-1425,364,-639,-132,-234,-93,62,-56,-196
1,350787,-1425,364,-639,-132,-234,-93,62,-56,-196
1,350792,-1426,366,-638,-128,-228,-93,62,-56,-196
1,350796,-1426,366,-638,-128,-228,-93,62,-56,-196
1,350802,-1426,366,-638,-128,-228,-93,62,-56,-196
1,350808,-1426,366,-638,-128,-228,-93,62,-56,-196
1,350814,-1423,367,-641,-129,-226,-95,62,-56,-196
1,350819,-1423,367,-641,-129,-226,-95,62,-56,-196
1,350824,-1423,367,-641,-129,-226,-95,62,-56,-196
1,350829,-1423,367,-641,-129,-226,-95,62,-56,-196
1,350834,-1425,366,-641,-133,-227,-93,62,-56,-196
1,350839,-1425,366,-641,-133,-227,-93,62,-56,-196
1,350844,-1425,366,-641,-133,-227,-93,62,-56,-196
1,350851,-1426,368,-642,-133,-236,-95,64,-56,-196
1,350856,-1426,368,-642,-133,-236,-95,64,-48,-188
1,350862,-1426,368,-642,-133,-236,-95,64,-48,-188
1,350867,-1426,368,-642,-133,-236,-95,64,-48,-188
1,350873,-1425,368,-638,-130,-226,-91,64,-48,-188
1,350878,-1425,368,-638,-130,-226,-91,64,-48,-188
1,350883,-1425,368,-638,-130,-226,-91,64,-48,-188
1,350888,-1425,368,-638,-130,-226,-91,64,-48,-188
1,350895,-1425,366,-639,-128,-236,-90,64,-48,-188
1,350900,-1425,366,-639,-128,-236,-90,64,-48,-188
1,350906,-1425,366,-639,-128,-236,-90,64,-48,-188
1,350911,-1426,369,-636,-124,-233,-94,64,-48,-188
1,350917,-1426,369,-636,-124,-233,-94,64,-48,-188
1,350921,-1426,369,-636,-124,-233,-94,64,-48,-188
1,350926,-1426,369,-636,-124,-233,-94,64,-48,-188
1,350931,-1426,367,-642,-134,-233,-93,64,-48,-188
1,350938,-1426,367,-642,-134,-233,-93,64,-48,-188
1,350943,-1426,367,-642,-134,-233,-93,64,-48,-188
1,350948,-1426,367,-642,-134,-233,-93,64,-48,-188
1,350953,-1427,368,-640,-132,-229,-90,64,-48,-188
1,350959,-1427,368,-640,-132,-229,-90,64,-48,-188
1,350963,-1427,368,-640,-132,-229,-90,64,-48,-188
1,350969,-1427,368,-640,-132,-229,-90,64,-48,-188
1,350974,-1429,370,-646,-127,-234,-101,62,-58,-188
1,350981,-1429,370,-646,-127,-234,-101,62,-58,-188
1,350987,-1429,370,-646,-127,-234,-101,62,-58,-188
1,350992,-1425,367,-636,-123,-235,-95,62,-58,-188
1,350998,-1425,367,-636,-123,-235,-95,62,-58,-188
1,351003,-1425,367,-636,-123,-235,-95,62,-58,-188
1,351009,-1425,367,-636,-123,-235,-95,62,-58,-188
1,351014,-1424,370,-638,-125,-230,-94,62,-58,-188
1,351021,-1424,370,-638,-125,-230,-94,62,-58,-188
1,351026,-1424,370,-638,-125,-230,-94,62,-58,-188
1,351031,-1424,370,-638,-125,-230,-94,62,-58,-188
1,351036,-1425,367,-639,-129,-229,-91,62,-58,-188
1,351041,-1425,367,-639,-129,-229,-91,62,-58,-188
1,351047,-1425,367,-639,-129,-229,-91,62,-58,-188
1,351053,-1424,369,-637,-136,-232,-87,62,-58,-188
1,351058,-1424,369,-637,-136,-232,-87,62,-58,-188
1,351064,-1424,369,-637,-136,-232,-87,62,-58,-188
1,351069,-1424,369,-637,-136,-232,-87,62,-58,-188
1,351074,-1425,367,-640,-132,-229,-93,62,-58,-188
1,351080,-1425,367,-640,-132,-229,-93,62,-58,-188
1,351085,-1425,367,-640,-132,-229,-93,62,-58,-188
1,351090,-1425,367,-640,-132,-229,-93,62,-58,-188
1,351096,-1428,364,-633,-131,-235,-94,61,-55,-183
1,351101,-1428,364,-633,-131,-235,-94,61,-55,-183
1,351107,-1428,364,-633,-131,-235,-94,61,-55,-183
1,351113,-1426,367,-636,-128,-234,-90,61,-55,-183
1,351118,-1426,367,-636,-128,-234,-90,61,-55,-183
1,351123,-1426,367,-636,-128,-234,-90,61,-55,-183
1,351130,-1426,367,-636,-128,-234,-90,61,-55,-183
1,351135,-1425,367,-639,-129,-233,-94,61,-55,-183
1,351140,-1425,367,-639,-129,-233,-94,61,-55,-183
1,351147,-1425,367,-639,-129,-233,-94,61,-55,-183
1,351152,-1426,366,-642,-130,-227,-91,61,-55,-183
1,351158,-1426,366,-642,-130,-227,-91,61,-55,-183
1,351163,-1426,366,-642,-130,-227,-91,61,-55,-183
1,351169,-1426,366,-642,-130,-227,-91,61,-55,-183
1,351174,-1425,368,-641,-132,-228,-90,61,-55,-183
1,351179,-1425,368,-641,-132,-228,-90,61,-55,-183
1,351185,-1425,368,-641,-132,-228,-90,61,-55,-183
1,351190,-1425,368,-641,-132,-228,-90,61,-55,-183
1,351196,-1428,367,-637,-131,-231,-93,61,-55,-183
1,351202,-1428,367,-637,-131,-231,-93,61,-55,-183
1,351207,-1428,367,-637,-131,-231,-93,61,-55,-183
1,351213,-1427,366,-631,-139,-230,-89,67,-61,-195
1,351218,-1427,366,-631,-139,-230,-89,67,-61,-195
1,351224,-1427,366,-631,-139,-230,-89,67,-61,-195
1,351229,-1427,366,-631,-139,-230,-89,67,-61,-195
1,351235,-1426,367,-637,-138,-230,-94,67,-61,-195
1,351241,-1426,367,-637,-138,-230,-94,67,-61,-195
1,351246,-1426,367,-637,-138,-230,-94,67,-61,-195
1,351251,-1424,367,-632,-130,-225,-97,67,-61,-195
1,351257,-1424,367,-632,-130,-225,-97,67,-61,-195
1,351262,-1424,367,-632,-130,-225,-97,67,-61,-195
1,351267,-1424,367,-632,-130,-225,-97,67,-61,-195
1,351272,-1427,368,-638,-136,-227,-94,67,-61,-195
1,351278,-1427,368,-638,-136,-227,-94,67,-61,-195
1,351284,-1427,368,-638,-136,-227,-94,67,-61,-195
1,351289,-1427,368,-638,-136,-227,-94,67,-61,-195
1,351295,-1425,366,-640,-127,-219,-93,67,-61,-195
1,351300,-1425,366,-640,-127,-219,-93,67,-61,-195
1,351305,-1425,366,-640,-127,-219,-93,67,-61,-195
1,351311,-1424,364,-641,-125,-224,-87,67,-61,-195
1,351316,-1424,364,-641,-125,-224,-87,67,-61,-195
1,351322,-1424,364,-641,-125,-224,-87,67,-61,-195
1,351328,-1424,364,-641,-125,-224,-87,67,-61,-195
1,351333,-1424,366,-642,-126,-228,-88,67,-61,-195
1,351339,-1424,366,-642,-126,-228,-88,67,-61,-195
1,351344,-1424,366,-642,-126,-228,-88,67,-61,-195
1,351350,-1424,366,-642,-126,-228,-88,67,-61,-195
1,351355,-1426,368,-637,-128,-231,-89,62,-54,-192
1,351361,-1426,368,-637,-128,-231,-89,62,-54,-192
1,351367,-1426,368,-637,-128,-231,-89,62,-54,-192
1,351373,-1427,369,-638,-128,-223,-93,62,-54,-192
1,351378,-1427,369,-638,-128,-223,-93,62,-54,-192
1,351384,-1427,369,-638,-128,-223,-93,62,-54,-192
1,351389,-1427,369,-638,-128,-223,-93,62,-54,-192
1,351394,-1427,367,-641,-127,-233,-88,62,-54,-192
1,351400,-1427,367,-641,-127,-233,-88,62,-54,-192
1,351406,-1427,367,-641,-127,-233,-88,62,-54,-192
1,351412,-1422,365,-637,-129,-232,-94,62,-54,-192
1,351417,-1422,365,-637,-129,-232,-94,62,-54,-192
1,351422,-1422,365,-637,-129,-232,-94,62,-54,-192
1,351428,-1422,365,-637,-129,-232,-94,62,-54,-192
1,351433,-1427,367,-639,-131,-231,-94,62,-54,-192
1,351438,-1427,367,-639,-131,-231,-94,62,-54,-192
1,351443,-1427,367,-639,-131,-231,-94,62,-54,-192
1,351449,-1427,367,-639,-131,-231,-94,62,-54,-192
1,351455,-1426,367,-635,-127,-231,-95,62,-54,-192
1,351460,-1426,367,-635,-127,-231,-95,62,-54,-192
1,351466,-1426,367,-635,-127,-231,-95,62,-54,-192
1,351470,-1426,367,-635,-127,-231,-95,62,-54,-192
1,351475,-1426,366,-631,-135,-231,-101,70,-54,-196
1,351480,-1426,366,-631,-135,-231,-101,70,-54,-196
1,351485,-1426,366,-631,-135,-231,-101,70,-54,-196
1,351491,-1426,366,-631,-135,-231,-101,70,-54,-196
1,351496,-1424,366,-640,-137,-226,-101,70,-54,-196
1,351501,-1424,366,-640,-137,-226,-101,70,-54,-196
1,351506,-1424,366,-640,-137,-226,-101,70,-54,-196
1,351512,-1425,369,-637,-130,-232,-102,70,-54,-196
1,351517,-1425,369,-637,-130,-232,-102,70,-54,-196
1,351523,-1425,369,-637,-130,-232,-102,70,-54,-196
1,351528,-1425,369,-637,-130,-232,-102,70,-54,-196
1,351534,-1425,369,-641,-128,-234,-98,70,-54,-196
1,351540,-1425,369,-641,-128,-234,-98,70,-54,-196
1,351545,-1425,369,-641,-128,-234,-98,70,-54,-196
1,351550,-1425,369,-641,-128,-234,-98,70,-54,-196
1,351556,-1426,368,-640,-127,-228,-89,70,-54,-196
1,351561,-1426,368,-640,-127,-228,-89,70,-54,-196
1,351567,-1426,368,-640,-127,-228,-89,70,-54,-196
1,351572,-1424,366,-638,-130,-230,-95,70,-54,-196
1,351579,-1424,366,-638,-130,-230,-95,70,-54,-196
1,351584,-1424,366,-638,-130,-230,-95,70,-54,-196
1,351589,-1424,366,-638,-130,-230,-95,70,-54,-196
1,351594,-1427,368,-638,-134,-238,-92,62,-58,-192
1,351600,-1427,368,-638,-134,-238,-92,62,-58,-192
1,351606,-1427,368,-638,-134,-238,-92,62,-58,-192
1,351611,-1427,368,-638,-134,-238,-92,62,-58,-192
1,351618,-1428,367,-635,-126,-234,-89,62,-58,-192
1,351623,-1428,367,-635,-126,-234,-89,62,-58,-192
1,351628,-1428,367,-635,-126,-234,-89,62,-58,-192
1,351634,-1427,372,-643,-132,-233,-92,62,-58,-192
1,351639,-1427,372,-643,-132,-233,-92,62,-58,-192
1,351645,-1427,372,-643,-132,-233,-92,62,-58,-192
1,351650,-1427,372,-643,-132,-233,-92,62,-58,-192
1,351656,-1422,369,-642,-129,-225,-89,62,-58,-192
1,351664,-1422,369,-642,-129,-225,-89,62,-58,-192
1,351670,-1422,369,-642,-129,-225,-89,62,-58,-192
1,351675,-1424,368,-639,-134,-231,-90,62,-58,-192
1,351681,-1424,368,-639,-134,-231,-90,62,-58,-192
1,351687,-1424,368,-639,-134,-231,-90,62,-58,-192
1,351692,-1426,370,-633,-132,-226,-96,62,-58,-192
1,351698,-1426,370,-633,-132,-226,-96,62,-58,-192
1,351704,-1426,370,-633,-132,-226,-96,62,-58,-192
1,351710,-1426,370,-633,-132,-226,-96,62,-58,-192
1,351716,-1425,366,-638,-127,-235,-90,58,-64,-196
1,351722,-1425,366,-638,-127,-235,-90,58,-64,-196
1,351728,-1425,366,-638,-127,-235,-90,58,-64,-196
1,351733,-1427,366,-635,-129,-226,-91,58,-64,-196
1,351738,-1427,366,-635,-129,-226,-91,58,-64,-196
1,351745,-1427,366,-635,-129,-226,-91,58,-64,-196
1,351751,-1427,366,-635,-129,-226,-91,58,-64,-196
1,351756,-1426,369,-637,-127,-225,-94,58,-64,-196
1,351762,-1426,369,-637,-127,-225,-94,58,-64,-196
1,351767,-1426,369,-637,-127,-225,-94,58,-64,-196
1,351773,-1424,367,-637,-134,-233,-90,58,-64,-196
1,351778,-1424,367,-637,-134,-233,-90,58,-64,-196
1,351783,-1424,367,-637,-134,-233,-90,58,-64,-196
1,351790,-1424,367,-637,-134,-233,-90,58,-64,-196
1,351795,-1425,366,-637,-137,-235,-84,58,-64,-196
1,351801,-1425,366,-637,-137,-235,-84,58,-64,-196
1,351806,-1425,366,-637,-137,-235,-84,58,-64,-196
1,351811,-1425,366,-637,-137,-235,-84,58,-64,-196
1,351817,-1426,370,-640,-134,-233,-90,58,-64,-196
1,351822,-1426,370,-640,-134,-233,-90,58,-64,-196
1,351828,-1426,370,-640,-134,-233,-90,58,-64,-196
1,351834,-1426,367,-634,-142,-232,-92,74,-60,-198
1,351839,-1426,367,-634,-142,-232,-92,74,-60,-198
1,351845,-1426,367,-634,-142,-232,-92,74,-60,-198
1,351850,-1426,367,-634,-142,-232,-92,74,-60,-198
1,351856,-1426,368,-637,-129,-230,-87,74,-60,-198
1,351861,-1426,368,-637,-129,-230,-87,74,-60,-198
1,351867,-1426,368,-637,-129,-230,-87,74,-60,-198
1,351873,-1428,367,-638,-125,-237,-89,74,-60,-198
1,351879,-1428,367,-638,-125,-237,-89,74,-60,-198
1,351885,-1428,367,-638,-125,-237,-89,74,-60,-198
1,351891,-1428,367,-638,-125,-237,-89,74,-60,-198
1,351896,-1425,367,-638,-129,-240,-90,74,-60,-198
1,351902,-1425,367,-638,-129,-240,-90,74,-60,-198
1,351907,-1425,367,-638,-129,-240,-90,74,-60,-198
1,351913,-1425,368,-640,-136,-226,-86,74,-60,-198
1,351919,-1425,368,-640,-136,-226,-86,74,-60,-198
1,351925,-1425,368,-640,-136,-226,-86,74,-60,-198
1,351930,-1425,368,-640,-136,-226,-86,74,-60,-198
1,351936,-1427,366,-636,-133,-240,-94,74,-60,-198
1,351941,-1427,366,-636,-133,-240,-94,74,-60,-198
1,351947,-1427,366,-636,-133,-240,-94,74,-60,-198
1,351952,-1426,367,-635,-134,-235,-93,81,-53,-183
1,351960,-1426,367,-635,-134,-235,-93,81,-53,-183
1,351966,-1426,367,-635,-134,-235,-93,81,-53,-183
1,351972,-1426,367,-635,-134,-235,-93,81,-53,-183
1,351978,-1427,366,-639,-136,-232,-92,81,-53,-183
1,351983,-1427,366,-639,-136,-232,-92,81,-53,-183
1,351988,-1427,366,-639,-136,-232,-92,81,-53,-183
1,351994,-1427,367,-638,-126,-232,-96,81,-53,-183
1,352000,-1427,367,-638,-126,-232,-96,81,-53,-183
1,352006,-1427,367,-638,-126,-232,-96,81,-53,-183
1,352012,-1425,369,-641,-130,-231,-89,81,-53,-183
1,352019,-1425,369,-641,-130,-231,-89,81,-53,-183
1,352024,-1425,369,-641,-130,-231,-89,81,-53,-183
1,352030,-1425,369,-641,-130,-231,-89,81,-53,-183
1,352034,-1430,368,-637,-132,-224,-96,81,-53,-183
1,352040,-1430,368,-637,-132,-224,-96,81,-53,-183
1,352046,-1430,368,-637,-132,-224,-96,81,-53,-183
1,352052,-1430,368,-637,-132,-224,-96,81,-53,-183
1,352057,-1426,367,-636,-136,-233,-95,81,-53,-183
1,352063,-1426,367,-636,-136,-233,-95,81,-53,-183
1,352068,-1426,367,-636,-136,-233,-95,81,-53,-183
1,352073,-1426,368,-636,-126,-230,-96,81,-53,-183
1,352079,-1426,368,-636,-126,-230,-96,81,-53,-183
1,352086,-1426,368,-636,-126,-230,-96,81,-53,-183
1,352091,-1426,368,-636,-126,-230,-96,81,-53,-183
1,352097,-1426,368,-634,-127,-225,-92,59,-55,-195
1,352102,-1426,368,-634,-127,-225,-92,59,-55,-195
1,352108,-1426,368,-634,-127,-225,-92,59,-55,-195
1,352113,-1427,366,-637,-131,-229,-91,59,-55,-195
1,352119,-1427,366,-637,-131,-229,-91,59,-55,-195
1,352124,-1427,366,-637,-131,-229,-91,59,-55,-195
1,352131,-1427,366,-637,-131,-229,-91,59,-55,-195
1,352137,-1425,366,-643,-130,-226,-81,59,-55,-195
1,352142,-1425,366,-643,-130,-226,-81,59,-55,-195
1,352147,-1425,366,-643,-130,-226,-81,59,-55,-195
1,352152,-1425,367,-639,-133,-232,-89,59,-55,-195
1,352157,-1425,367,-639,-133,-232,-89,59,-55,-195
1,352163,-1425,367,-639,-133,-232,-89,59,-55,-195
1,352168,-1425,367,-639,-133,-232,-89,59,-55,-195
1,352175,-1425,367,-637,-132,-241,-87,59,-55,-195
1,352180,-1425,367,-637,-132,-241,-87,59,-55,-195
1,352185,-1425,367,-637,-132,-241,-87,59,-55,-195
1,352190,-1425,367,-637,-132,-241,-87,59,-55,-195
1,352196,-1428,365,-642,-134,-232,-92,59,-55,-195
1,352201,-1428,365,-642,-134,-232,-92,59,-55,-195
1,352206,-1428,365,-642,-134,-232,-92,59,-55,-195
1,352212,-1428,365,-642,-134,-232,-92,59,-55,-195
1,352217,-1427,366,-638,-133,-236,-98,63,-55,-195
1,352223,-1427,366,-638,-133,-236,-98,63,-55,-195
1,352228,-1427,366,-638,-133,-236,-98,63,-55,-195
1,352233,-1426,365,-638,-131,-237,-96,63,-55,-195
1,352238,-1426,365,-638,-131,-237,-96,63,-55,-195
1,352244,-1426,365,-638,-131,-237,-96,63,-55,-195
1,352250,-1426,365,-638,-131,-237,-96,63,-55,-195
1,352257,-1428,367,-635,-127,-235,-87,63,-55,-195
1,352261,-1428,367,-635,-127,-235,-87,63,-55,-195
1,352267,-1428,367,-635,-127,-235,-87,63,-55,-195
1,352272,-1428,367,-635,-127,-235,-87,63,-55,-195
1,352278,-1426,370,-634,-126,-239,-88,63,-55,-195
1,352283,-1426,370,-634,-126,-239,-88,63,-55,-195
1,352288,-1426,370,-634,-126,-239,-88,63,-55,-195
1,352294,-1427,366,-639,-127,-237,-94,63,-55,-195
1,352300,-1427,366,-639,-127,-237,-94,63,-55,-195
1,352306,-1427,366,-639,-127,-237,-94,63,-55,-195
1,352311,-1427,366,-639,-127,-237,-94,63,-55,-195
1,352317,-1426,369,-636,-131,-235,-84,63,-55,-195
1,352322,-1426,369,-636,-131,-235,-84,63,-55,-195
1,352327,-1426,369,-636,-131,-235,-84,63,-55,-195
1,352332,-1423,369,-637,-130,-231,-88,63,-55,-195
1,352337,-1423,369,-637,-130,-231,-88,63,-53,-185
1,352344,-1423,369,-637,-130,-231,-88,63,-53,-185
1,352350,-1423,369,-637,-130,-231,-88,63,-53,-185
1,352355,-1423,367,-639,-134,-232,-89,63,-53,-185
1,352361,-1423,367,-639,-134,-232,-89,63,-53,-185
1,352366,-1423,367,-639,-134,-232,-89,63,-53,-185
1,352371,-1423,367,-639,-134,-232,-89,63,-53,-185
1,352377,-1426,365,-637,-136,-231,-87,63,-53,-185
1,352384,-1426,365,-637,-136,-231,-87,63,-53,-185
1,352389,-1426,365,-637,-136,-231,-87,63,-53,-185
1,352395,-1423,365,-639,-128,-227,-86,63,-53,-185
1,352401,-1423,365,-639,-128,-227,-86,63,-53,-185
1,352406,-1423,365,-639,-128,-227,-86,63,-53,-185
1,352411,-1423,365,-639,-128,-227,-86,63,-53,-185
1,352416,-1423,369,-643,-125,-228,-89,63,-53,-185
1,352422,-1423,369,-643,-125,-228,-89,63,-53,-185
1,352428,-1423,369,-643,-125,-228,-89,63,-53,-185
1,352433,-1425,367,-646,-129,-232,-100,63,-53,-185
1,352438,-1425,367,-646,-129,-232,-100,63,-53,-185
1,352443,-1425,367,-646,-129,-232,-100,63,-53,-185
1,352448,-1425,367,-646,-129,-232,-100,63,-53,-185
1,352454,-1427,369,-638,-130,-232,-95,66,-66,-190
1,352460,-1427,369,-638,-130,-232,-95,66,-66,-190
1,352465,-1427,369,-638,-130,-232,-95,66,-66,-190
1,352471,-1427,369,-638,-130,-232,-95,66,-66,-190
1,352477,-1424,366,-637,-135,-235,-84,66,-66,-190
1,352482,-1424,366,-637,-135,-235,-84,66,-66,-190
1,352487,-1424,366,-637,-135,-235,-84,66,-66,-190
1,352493,-1429,369,-639,-128,-229,-87,66,-66,-190
1,352498,-1429,369,-639,-128,-229,-87,66,-66,-190
1,352503,-1429,369,-639,-128,-229,-87,66,-66,-190
1,352509,-1429,369,-639,-128,-229,-87,66,-66,-190
1,352515,-1430,367,-643,-130,-228,-85,66,-66,-190
1,352520,-1430,367,-643,-130,-228,-85,66,-66,-190
1,352526,-1430,367,-643,-130,-228,-85,66,-66,-190
1,352531,-1430,367,-643,-130,-228,-85,66,-66,-190
1,352537,-1426,364,-640,-132,-238,-84,66,-66,-190
1,352542,-1426,364,-640,-132,-238,-84,66,-66,-190
1,352548,-1426,364,-640,-132,-238,-84,66,-66,-190
1,352553,-1429,367,-641,-132,-236,-91,66,-66,-190
1,352560,-1429,367,-641,-132,-236,-91,66,-66,-190
1,352565,-1429,367,-641,-132,-236,-91,66,-66,-190
1,352570,-1429,367,-641,-132,-236,-91,66,-66,-190
1,352575,-1427,368,-635,-134,-239,-97,67,-61,-189
1,352580,-1427,368,-635,-134,-239,-97,67,-61,-189
1,352585,-1427,368,-635,-134,-239,-97,67,-61,-189
1,352591,-1427,368,-635,-134,-239,-97,67,-61,-189
1,352596,-1428,370,-637,-133,-234,-90,67,-61,-189
1,352602,-1428,370,-637,-133,-234,-90,67,-61,-189
1,352607,-1428,370,-637,-133,-234,-90,67,-61,-189
1,352613,-1425,370,-639,-138,-235,-85,67,-61,-189
1,352618,-1425,370,-639,-138,-235,-85,67,-61,-189
1,352623,-1425,370,-639,-138,-235,-85,67,-61,-189
1,352629,-1425,370,-639,-138,-235,-85,67,-61,-189
1,352634,-1428,369,-636,-134,-226,-90,67,-61,-189
1,352641,-1428,369,-636,-134,-226,-90,67,-61,-189
1,352646,-1428,369,-636,-134,-226,-90,67,-61,-189
1,352651,-1428,369,-636,-134,-226,-90,67,-61,-189
1,352657,-1426,366,-641,-135,-237,-94,67,-61,-189
1,352663,-1426,366,-641,-135,-237,-94,67,-61,-189
1,352668,-1426,366,-641,-135,-237,-94,67,-61,-189
1,352673,-1426,367,-638,-134,-237,-96,67,-61,-189
1,352678,-1426,367,-638,-134,-237,-96,67,-61,-189
1,352685,-1426,367,-638,-134,-237,-96,67,-61,-189
1,352690,-1426,367,-638,-134,-237,-96,67,-61,-189
1,352696,-1425,368,-639,-131,-230,-90,65,-57,-189
1,352701,-1425,368,-639,-131,-230,-90,65,-57,-189
1,352706,-1425,368,-639,-131,-230,-90,65,-57,-189
1,352711,-1425,368,-639,-131,-230,-90,65,-57,-189
1,352717,-1425,366,-636,-127,-241,-95,65,-57,-189
1,352723,-1425,366,-636,-127,-241,-95,65,-57,-189
1,352730,-1425,366,-636,-127,-241,-95,65,-57,-189
1,352736,-1426,371,-643,-134,-234,-90,65,-57,-189
1,352742,-1426,371,-643,-134,-234,-90,65,-57,-189
1,352747,-1426,371,-643,-134,-234,-90,65,-57,-189
1,352752,-1426,371,-643,-134,-234,-90,65,-57,-189
1,352758,-1427,368,-640,-130,-230,-93,65,-57,-189
1,352763,-1427,368,-640,-130,-230,-93,65,-57,-189
1,352770,-1427,368,-640,-130,-230,-93,65,-57,-189
1,352776,-1426,366,-640,-138,-231,-96,65,-57,-189
1,352782,-1426,366,-640,-138,-231,-96,65,-57,-189
1,352787,-1426,366,-640,-138,-231,-96,65,-57,-189
1,352793,-1425,366,-637,-140,-234,-87,65,-57,-189
1,352799,-1425,366,-637,-140,-234,-87,65,-57,-189
1,352805,-1425,366,-637,-140,-234,-87,65,-57,-189
1,352811,-1425,366,-637,-140,-234,-87,65,-57,-189
1,352816,-1425,368,-639,-133,-230,-89,65,-57,-189
1,352821,-1425,368,-639,-133,-230,-89,65,-57,-189
1,352827,-1425,368,-639,-133,-230,-89,65,-57,-189
1,352832,-1425,368,-639,-133,-230,-89,65,-57,-189
1,352838,-1425,369,-636,-135,-234,-94,59,-43,-195
1,352843,-1425,369,-636,-135,-234,-94,59,-43,-195
1,352848,-1425,369,-636,-135,-234,-94,59,-43,-195
1,352854,-1429,367,-634,-136,-236,-91,59,-43,-195
1,352859,-1429,367,-634,-136,-236,-91,59,-43,-195
1,352865,-1429,367,-634,-136,-236,-91,59,-43,-195
1,352871,-1429,367,-634,-136,-236,-91,59,-43,-195
1,352876,-1426,368,-643,-132,-234,-88,59,-43,-195
1,352881,-1426,368,-643,-132,-234,-88,59,-43,-195
1,352886,-1426,368,-643,-132,-234,-88,59,-43,-195
1,352893,-1426,368,-643,-132,-234,-88,59,-43,-195
1,352899,-1426,368,-643,-132,-234,-88,59,-43,-195
1,352906,-1426,368,-643,-132,-234,-88,59,-43,-195
1,352911,-1426,368,-643,-132,-234,-88,59,-43,-195
1,352917,-1425,368,-637,-140,-230,-93,59,-43,-195
1,352923,-1425,368,-637,-140,-230,-93,59,-43,-195
1,352928,-1425,368,-637,-140,-230,-93,59,-43,-195
1,352934,-1427,366,-641,-137,-230,-97,59,-43,-195
1,352941,-1427,366,-641,-137,-230,-97,59,-43,-195
1,352947,-1427,366,-641,-137,-230,-97,59,-43,-195
1,352953,-1427,366,-641,-137,-230,-97,59,-43,-195
1,352958,-1424,364,-639,-133,-234,-90,61,-53,-189
1,352963,-1424,364,-639,-133,-234,-90,61,-53,-189
1,352969,-1424,364,-639,-133,-234,-90,61,-53,-189
1,352975,-1425,367,-635,-133,-234,-86,61,-53,-189
1,352982,-1425,367,-635,-133,-234,-86,61,-53,-189
1,352989,-1425,367,-635,-133,-234,-86,61,-53,-189
1,352996,-1424,368,-644,-133,-230,-86,61,-53,-189
1,353003,-1424,368,-644,-133,-230,-86,61,-53,-189
1,353010,-1424,368,-644,-133,-230,-86,61,-53,-189
1,353016,-1425,368,-637,-130,-237,-94,61,-53,-189
1,353022,-1425,368,-637,-130,-237,-94,61,-53,-189
1,353029,-1425,368,-637,-130,-237,-94,61,-53,-189
1,353035,-1426,367,-636,-135,-231,-98,61,-53,-189
1,353041,-1426,367,-636,-135,-231,-98,61,-53,-189
1,353047,-1426,367,-636,-135,-231,-98,61,-53,-189
1,353053,-1425,368,-641,-134,-231,-88,61,-53,-189
1,353059,-1425,368,-641,-134,-231,-88,61,-53,-189
1,353065,-1425,368,-641,-134,-231,-88,61,-53,-189
1,353072,-1425,368,-641,-134,-231,-88,61,-53,-189
1,353077,-1425,367,-633,-129,-229,-91,71,-53,-191
1,353083,-1425,367,-633,-129,-229,-91,71,-53,-191
1,353089,-1425,367,-633,-129,-229,-91,71,-53,-191
1,353095,-1424,368,-636,-128,-229,-95,71,-53,-191
1,353102,-1424,368,-636,-128,-229,-95,71,-53,-191
1,353108,-1424,368,-636,-128,-229,-95,71,-53,-191
1,353114,-1425,367,-641,-127,-231,-94,71,-53,-191
1,353119,-1425,367,-641,-127,-231,-94,71,-53,-191
1,353125,-1425,367,-641,-127,-231,-94,71,-53,-191
1,353130,-1425,367,-641,-127,-231,-94,71,-53,-191
1,353136,-1426,368,-640,-134,-229,-83,71,-53,-191
1,353141,-1426,368,-640,-134,-229,-83,71,-53,-191
1,353147,-1426,368,-640,-134,-229,-83,71,-53,-191
1,353153,-1426,368,-640,-134,-229,-83,71,-53,-191
1,353159,-1426,367,-636,-136,-224,-85,71,-53,-191
1,353164,-1426,367,-636,-136,-224,-85,71,-53,-191
1,353170,-1426,367,-636,-136,-224,-85,71,-53,-191
1,353175,-1426,366,-644,-133,-226,-92,71,-53,-191
1,353181,-1426,366,-644,-133,-226,-92,71,-53,-191
1,353187,-1426,366,-644,-133,-226,-92,71,-53,-191
1,353193,-1426,367,-632,-125,-226,-91,64,-56,-200
1,353199,-1426,367,-632,-125,-226,-91,64,-56,-200
1,353205,-1426,367,-632,-125,-226,-91,64,-56,-200
1,353211,-1426,367,-632,-125,-226,-91,64,-56,-200
1,353216,-1426,367,-638,-133,-226,-84,64,-56,-200
1,353221,-1426,367,-638,-133,-226,-84,64,-56,-200
1,353227,-1426,367,-638,-133,-226,-84,64,-56,-200
1,353232,-1426,367,-638,-133,-226,-84,64,-56,-200
1,353239,-1427,368,-641,-137,-230,-87,64,-56,-200
1,353244,-1427,368,-641,-137,-230,-87,64,-56,-200
1,353249,-1427,368,-641,-137,-230,-87,64,-56,-200
1,353255,-1427,367,-643,-131,-229,-92,64,-56,-200
1,353260,-1427,367,-643,-131,-229,-92,64,-56,-200
1,353265,-1427,367,-643,-131,-229,-92,64,-56,-200
1,353271,-1427,367,-643,-131,-229,-92,64,-56,-200
1,353276,-1423,365,-635,-130,-225,-92,64,-56,-200
1,353282,-1423,365,-635,-130,-225,-92,64,-56,-200
1,353287,-1423,365,-635,-130,-225,-92,64,-56,-200
1,353293,-1423,365,-635,-130,-225,-92,64,-56,-200
1,353298,-1425,367,-635,-134,-226,-93,64,-56,-200
1,353303,-1425,367,-635,-134,-226,-93,64,-56,-200
1,353308,-1425,367,-635,-134,-226,-93,64,-56,-200
1,353314,-1423,368,-638,-132,-233,-91,66,-54,-190
1,353319,-1423,368,-638,-132,-233,-91,66,-54,-190
1,353325,-1423,368,-638,-132,-233,-91,66,-54,-190
1,353331,-1423,368,-638,-132,-233,-91,66,-54,-190
1,353336,-1426,369,-638,-134,-229,-95,66,-54,-190
1,353341,-1426,369,-638,-134,-229,-95,66,-54,-190
1,353346,-1426,369,-638,-134,-229,-95,66,-54,-190
1,353351,-1426,369,-638,-134,-229,-95,66,-54,-190
1,353356,-1426,363,-633,-135,-224,-84,66,-54,-190
1,353362,-1426,363,-633,-135,-224,-84,66,-54,-190
1,353368,-1426,363,-633,-135,-224,-84,66,-54,-190
1,353375,-1425,367,-639,-126,-232,-90,66,-54,-190
1,353380,-1425,367,-639,-126,-232,-90,66,-54,-190
1,353386,-1425,367,-639,-126,-232,-90,66,-54,-190
1,353392,-1425,367,-639,-126,-232,-90,66,-54,-190
1,353398,-1426,368,-638,-129,-235,-91,66,-54,-190
1,353404,-1426,368,-638,-129,-235,-91,66,-54,-190
1,353411,-1426,368,-638,-129,-235,-91,66,-54,-190
1,353416,-1427,369,-642,-133,-228,-90,66,-54,-190
1,353422,-1427,369,-642,-133,-228,-90,66,-54,-190
1,353427,-1427,369,-642,-133,-228,-90,66,-54,-190
1,353432,-1427,369,-642,-133,-228,-90,66,-54,-190
1,353438,-1427,366,-639,-127,-228,-96,66,-54,-190
1,353446,-1427,366,-639,-127,-228,-96,66,-54,-190
1,353453,-1427,366,-639,-127,-228,-96,66,-54,-190
1,353460,-1426,370,-639,-130,-229,-99,70,-52,-192
1,353467,-1426,370,-639,-130,-229,-99,70,-52,-192
1,353473,-1426,370,-639,-130,-229,-99,70,-52,-192
1,353478,-1427,368,-635,-129,-229,-92,70,-52,-192
1,353483,-1427,368,-635,-129,-229,-92,70,-52,-192
1,353490,-1427,368,-635,-129,-229,-92,70,-52,-192
1,353497,-1427,367,-635,-128,-228,-96,70,-52,-192
1,353502,-1427,367,-635,-128,-228,-96,70,-52,-192
1,353507,-1427,367,-635,-128,-228,-96,70,-52,-192
1,353513,-1427,367,-635,-128,-228,-96,70,-52,-192
1,353518,-1426,367,-641,-127,-226,-92,70,-52,-192
1,353523,-1426,367,-641,-127,-226,-92,70,-52,-192
1,353529,-1426,367,-641,-127,-226,-92,70,-52,-192
1,353534,-1423,365,-638,-126,-225,-93,70,-52,-192
1,353540,-1423,365,-638,-126,-225,-93,70,-52,-192
1,353546,-1423,365,-638,-126,-225,-93,70,-52,-192
1,353552,-1423,365,-638,-126,-225,-93,70,-52,-192
1,353558,-1424,366,-638,-123,-232,-90,70,-52,-192
1,353563,-1424,366,-638,-123,-232,-90,70,-52,-192
1,353568,-1424,366,-638,-123,-232,-90,70,-52,-192
1,353574,-1427,367,-637,-127,-235,-89,64,-54,-192
1,353581,-1427,367,-637,-127,-235,-89,64,-54,-194
1,353586,-1427,367,-637,-127,-235,-89,64,-54,-194
1,353591,-1427,367,-637,-127,-235,-89,64,-54,-194
1,353597,-1422,368,-638,-124,-232,-95,64,-54,-194
1,353603,-1422,368,-638,-124,-232,-95,64,-54,-194
1,353609,-1422,368,-638,-124,-232,-95,64,-54,-194
1,353614,-1425,368,-643,-131,-233,-88,64,-54,-194
1,353620,-1425,368,-643,-131,-233,-88,64,-54,-194
1,353627,-1425,368,-643,-131,-233,-88,64,-54,-194
1,353633,-1425,368,-643,-131,-233,-88,64,-54,-194
1,353639,-1425,368,-637,-128,-238,-89,64,-54,-194
1,353645,-1425,368,-637,-128,-238,-89,64,-54,-194
1,353651,-1425,368,-637,-128,-238,-89,64,-54,-194
1,353657,-1425,367,-642,-131,-230,-91,64,-54,-194
1,353662,-1425,367,-642,-131,-230,-91,64,-54,-194
1,353668,-1425,367,-642,-131,-230,-91,64,-54,-194
1,353674,-1425,367,-642,-131,-230,-91,64,-54,-194
1,353679,-1426,366,-636,-131,-232,-92,64,-54,-194
1,353684,-1426,366,-636,-131,-232,-92,64,-54,-194
1,353690,-1426,366,-636,-131,-232,-92,64,-54,-194
1,353696,-1427,368,-633,-133,-233,-88,57,-53,-195
1,353702,-1427,368,-633,-133,-233,-88,57,-53,-195
1,353709,-1427,368,-633,-133,-233,-88,57,-53,-195
1,353715,-1425,369,-636,-129,-229,-90,57,-53,-195
1,353722,-1425,369,-636,-129,-229,-90,57,-53,-195
1,353728,-1425,369,-636,-129,-229,-90,57,-53,-195
1,353734,-1425,368,-637,-133,-223,-90,57,-53,-195
1,353740,-1425,368,-637,-133,-223,-90,57,-53,-195
1,353745,-1425,368,-637,-133,-223,-90,57,-53,-195
1,353753,-1425,368,-637,-133,-223,-90,57,-53,-195
1,353759,-1427,368,-638,-132,-229,-90,57,-53,-195
1,353765,-1427,368,-638,-132,-229,-90,57,-53,-195
1,353771,-1427,368,-638,-132,-229,-90,57,-53,-195
1,353776,-1428,368,-642,-127,-230,-85,57,-53,-195
1,353781,-1428,368,-642,-127,-230,-85,57,-53,-195
1,353787,-1428,368,-642,-127,-230,-85,57,-53,-195
1,353793,-1428,368,-642,-127,-230,-85,57,-53,-195
1,353799,-1428,367,-641,-131,-227,-90,57,-53,-195
1,353805,-1428,367,-641,-131,-227,-90,57,-53,-195
1,353811,-1428,367,-641,-131,-227,-90,57,-53,-195
1,353817,-1426,368,-637,-129,-240,-87,68,-60,-196
1,353823,-1426,368,-637,-129,-240,-87,68,-60,-196
1,353829,-1426,368,-637,-129,-240,-87,68,-60,-196
1,353836,-1426,366,-637,-131,-234,-91,68,-60,-196
1,353842,-1426,366,-637,-131,-234,-91,68,-60,-196
1,353848,-1426,366,-637,-131,-234,-91,68,-60,-196
1,353854,-1426,366,-637,-131,-234,-91,68,-60,-196
1,353860,-1426,366,-637,-131,-234,-91,68,-60,-196
1,353866,-1426,366,-637,-131,-234,-91,68,-60,-196
1,353872,-1426,366,-637,-131,-234,-91,68,-60,-196
1,353878,-1424,365,-635,-138,-231,-91,68,-60,-196
1,353884,-1424,365,-635,-138,-231,-91,68,-60,-196
1,353891,-1424,365,-635,-138,-231,-91,68,-60,-196
1,353896,-1424,366,-642,-127,-227,-98,68,-60,-196
1,353902,-1424,366,-642,-127,-227,-98,68,-60,-196
1,353908,-1424,366,-642,-127,-227,-98,68,-60,-196
1,353913,-1424,366,-642,-127,-227,-98,68,-60,-196
1,353920,-1426,368,-643,-135,-230,-98,68,-60,-196
1,353925,-1426,368,-643,-135,-230,-98,68,-60,-196
1,353931,-1426,368,-643,-135,-230,-98,68,-60,-196
1,353936,-1425,370,-639,-132,-230,-96,64,-54,-194
1,353942,-1425,370,-639,-132,-230,-96,64,-54,-194
1,353947,-1425,370,-639,-132,-230,-96,64,-54,-194
1,353952,-1425,370,-639,-132,-230,-96,64,-54,-194
1,353958,-1426,367,-636,-131,-237,-95,64,-54,-194
1,353964,-1426,367,-636,-131,-237,-95,64,-54,-194
1,353970,-1426,367,-636,-131,-237,-95,64,-54,-194
1,353975,-1425,367,-637,-130,-229,-90,64,-54,-194
1,353981,-1425,367,-637,-130,-229,-90,64,-54,-194
1,353986,-1425,367,-637,-130,-229,-90,64,-54,-194
1,353991,-1425,367,-637,-130,-229,-90,64,-54,-194
1,353996,-1426,367,-636,-129,-228,-82,64,-54,-194
1,354002,-1426,367,-636,-129,-228,-82,64,-54,-194
1,354008,-1426,367,-636,-129,-228,-82,64,-54,-194
1,354014,-1426,367,-636,-129,-228,-82,64,-54,-194
1,354019,-1423,365,-635,-130,-229,-87,64,-54,-194
1,354025,-1423,365,-635,-130,-229,-87,64,-54,-194
1,354030,-1423,365,-635,-130,-229,-87,64,-54,-194
1,354035,-1425,367,-634,-125,-229,-91,64,-54,-194
1,354041,-1425,367,-634,-125,-229,-91,64,-54,-194
1,354046,-1425,367,-634,-125,-229,-91,64,-54,-194
1,354053,-1425,367,-634,-125,-229,-91,64,-54,-194
1,354059,-1428,368,-636,-130,-233,-97,65,-67,-195
1,354065,-1428,368,-636,-130,-233,-97,65,-67,-195
1,354071,-1428,368,-636,-130,-233,-97,65,-67,-195
1,354077,-1425,367,-636,-128,-239,-94,65,-67,-195
1,354083,-1425,367,-636,-128,-239,-94,65,-67,-195
1,354088,-1425,367,-636,-128,-239,-94,65,-67,-195
1,354094,-1425,367,-636,-128,-239,-94,65,-67,-195
1,354099,-1427,368,-637,-127,-243,-88,65,-67,-195
1,354104,-1427,368,-637,-127,-243,-88,65,-67,-195
1,354109,-1427,368,-637,-127,-243,-88,65,-67,-195
1,354114,-1427,365,-641,-128,-229,-90,65,-67,-195
1,354119,-1427,365,-641,-128,-229,-90,65,-67,-195
1,354125,-1427,365,-641,-128,-229,-90,65,-67,-195
1,354131,-1427,365,-641,-128,-229,-90,65,-67,-195
1,354138,-1427,367,-637,-128,-229,-95,65,-67,-195
1,354143,-1427,367,-637,-128,-229,-95,65,-67,-195
1,354149,-1427,367,-637,-128,-229,-95,65,-67,-195
1,354156,-1425,367,-638,-131,-225,-97,65,-67,-195
1,354161,-1425,367,-638,-131,-225,-97,65,-67,-195
1,354167,-1425,367,-638,-131,-225,-97,65,-67,-195
1,354173,-1425,367,-638,-131,-225,-97,65,-67,-195
1,354180,-1425,366,-639,-137,-229,-95,65,-67,-195
1,354186,-1425,366,-639,-137,-229,-95,65,-67,-195
1,354192,-1425,366,-639,-137,-229,-95,65,-67,-195
1,354198,-1425,368,-636,-134,-231,-92,75,-51,-203
1,354203,-1425,368,-636,-134,-231,-92,75,-51,-203
1,354209,-1425,368,-636,-134,-231,-92,75,-51,-203
1,354215,-1426,366,-637,-131,-231,-87,75,-51,-203
1,354221,-1426,366,-637,-131,-231,-87,75,-51,-203
1,354227,-1426,366,-637,-131,-231,-87,75,-51,-203
1,354232,-1426,366,-637,-131,-231,-87,75,-51,-203
1,354238,-1423,370,-638,-128,-230,-86,75,-51,-203
1,354246,-1423,370,-638,-128,-230,-86,75,-51,-203
1,354251,-1423,370,-638,-128,-230,-86,75,-51,-203
1,354256,-1425,368,-637,-132,-233,-93,75,-51,-203
1,354263,-1425,368,-637,-132,-233,-93,75,-51,-203
1,354268,-1425,368,-637,-132,-233,-93,75,-51,-203
1,354274,-1425,368,-637,-132,-233,-93,75,-51,-203
1,354280,-1423,368,-639,-133,-234,-92,75,-51,-203
1,354285,-1423,368,-639,-133,-234,-92,75,-51,-203
1,354291,-1423,368,-639,-133,-234,-92,75,-51,-203
1,354296,-1428,369,-642,-129,-227,-97,75,-51,-203
1,354302,-1428,369,-642,-129,-227,-97,75,-51,-203
1,354308,-1428,369,-642,-129,-227,-97,75,-51,-203
1,354314,-1428,369,-642,-129,-227,-97,75,-51,-203
1,354320,-1424,367,-639,-132,-232,-94,66,-50,-202
1,354325,-1424,367,-639,-132,-232,-94,66,-50,-202
1,354330,-1424,367,-639,-132,-232,-94,66,-50,-202
1,354336,-1425,365,-638,-131,-231,-95,66,-50,-202
1,354341,-1425,365,-638,-131,-231,-95,66,-50,-202
1,354347,-1425,365,-638,-131,-231,-95,66,-50,-202
1,354353,-1425,365,-638,-131,-231,-95,66,-50,-202
1,354358,-1425,365,-639,-133,-227,-90,66,-50,-202
1,354364,-1425,365,-639,-133,-227,-90,66,-50,-202
1,354369,-1425,365,-639,-133,-227,-90,66,-50,-202
1,354373,-1425,365,-639,-133,-227,-90,66,-50,-202
1,354379,-1428,366,-636,-132,-231,-93,66,-50,-202
1,354385,-1428,366,-636,-132,-231,-93,66,-50,-202
1,354391,-1428,366,-636,-132,-231,-93,66,-50,-202
1,354397,-1427,370,-634,-131,-232,-91,66,-50,-202
1,354402,-1427,370,-634,-131,-232,-91,66,-50,-202
1,354407,-1427,370,-634,-131,-232,-91,66,-50,-202
1,354413,-1427,370,-634,-131,-232,-91,66,-50,-202
1,354418,-1428,370,-638,-136,-234,-91,66,-50,-202
1,354424,-1428,370,-638,-136,-234,-91,66,-50,-202
1,354429,-1428,370,-638,-136,-234,-91,66,-50,-202
1,354436,-1425,368,-633,-132,-233,-85,67,-59,-191
1,354442,-1425,368,-633,-132,-233,-85,67,-59,-191
1,354447,-1425,368,-633,-132,-233,-85,67,-59,-191
1,354453,-1425,368,-633,-132,-233,-85,67,-59,-191
1,354459,-1424,366,-639,-134,-236,-87,67,-59,-191
1,354464,-1424,366,-639,-134,-236,-87,67,-59,-191
1,354469,-1424,366,-639,-134,-236,-87,67,-59,-191
1,354477,-1426,367,-637,-133,-230,-94,67,-59,-191
1,354482,-1426,367,-637,-133,-230,-94,67,-59,-191
1,354488,-1426,367,-637,-133,-230,-94,67,-59,-191
1,354494,-1426,367,-637,-133,-230,-94,67,-59,-191
1,354500,-1427,368,-636,-139,-237,-92,67,-59,-191
1,354506,-1427,368,-636,-139,-237,-92,67,-59,-191
1,354512,-1427,368,-636,-139,-237,-92,67,-59,-191
1,354519,-1426,368,-635,-132,-231,-98,67,-59,-191
1,354524,-1426,368,-635,-132,-231,-98,67,-59,-191
1,354530,-1426,368,-635,-132,-231,-98,67,-59,-191
1,354536,-1427,366,-644,-137,-232,-93,67,-59,-191
1,354542,-1427,366,-644,-137,-232,-93,67,-59,-191
1,354547,-1427,366,-644,-137,-232,-93,67,-59,-191
1,354552,-1427,366,-644,-137,-232,-93,67,-59,-191
1,354557,-1428,367,-642,-136,-231,-94,72,-54,-188
1,354564,-1428,367,-642,-136,-231,-94,72,-54,-188
1,354569,-1428,367,-642,-136,-231,-94,72,-54,-188
1,354575,-1424,370,-637,-136,-230,-89,72,-54,-188
1,354581,-1424,370,-637,-136,-230,-89,72,-54,-188
1,354586,-1424,370,-637,-136,-230,-89,72,-54,-188
1,354591,-1424,370,-637,-136,-230,-89,72,-54,-188
1,354597,-1426,366,-637,-131,-229,-90,72,-54,-188
1,354603,-1426,366,-637,-131,-229,-90,72,-54,-188
1,354608,-1426,366,-637,-131,-229,-90,72,-54,-188
1,354613,-1426,366,-637,-131,-229,-90,72,-54,-188
1,354619,-1427,367,-638,-134,-228,-89,72,-54,-188
1,354624,-1427,367,-638,-134,-228,-89,72,-54,-188
1,354630,-1427,367,-638,-134,-228,-89,72,-54,-188
1,354635,-1423,369,-638,-134,-233,-93,72,-54,-188
1,354640,-1423,369,-638,-134,-233,-93,72,-54,-188
1,354646,-1423,369,-638,-134,-233,-93,72,-54,-188
1,354652,-1423,369,-638,-134,-233,-93,72,-54,-188
1,354657,-1424,367,-638,-138,-234,-92,72,-54,-188
1,354663,-1424,367,-638,-138,-234,-92,72,-54,-188
1,354668,-1424,367,-638,-138,-234,-92,72,-54,-188
1,354674,-1424,367,-638,-138,-234,-92,72,-54,-188
1,354679,-1427,366,-638,-133,-235,-90,65,-55,-195
1,354685,-1427,366,-638,-133,-235,-90,65,-55,-195
1,354692,-1427,366,-638,-133,-235,-90,65,-55,-195
1,354697,-1427,364,-639,-133,-237,-92,65,-55,-195
1,354702,-1427,364,-639,-133,-237,-92,65,-55,-195
1,354708,-1427,364,-639,-133,-237,-92,65,-55,-195
1,354714,-1427,364,-639,-133,-237,-92,65,-55,-195
1,354719,-1424,370,-634,-139,-233,-92,65,-55,-195
1,354724,-1424,370,-634,-139,-233,-92,65,-55,-195
1,354731,-1424,370,-634,-139,-233,-92,65,-55,-195
1,354736,-1428,366,-637,-133,-231,-92,65,-55,-195
1,354741,-1428,366,-637,-133,-231,-92,65,-55,-195
1,354747,-1428,366,-637,-133,-231,-92,65,-55,-195
1,354753,-1428,366,-637,-133,-231,-92,65,-55,-195
1,354758,-1430,369,-635,-134,-231,-88,65,-55,-195
1,354763,-1430,369,-635,-134,-231,-88,65,-55,-195
1,354768,-1430,369,-635,-134,-231,-88,65,-55,-195
1,354774,-1430,369,-635,-134,-231,-88,65,-55,-195
1,354779,-1427,367,-638,-132,-232,-90,65,-55,-195
1,354784,-1427,367,-638,-132,-232,-90,65,-55,-195
1,354790,-1427,367,-638,-132,-232,-90,65,-55,-195
1,354795,-1430,367,-637,-127,-235,-90,65,-55,-195
1,354800,-1430,367,-637,-127,-235,-90,65,-55,-195
1,354805,-1430,367,-637,-127,-235,-90,65,-55,-195
1,354810,-1430,367,-637,-127,-235,-90,65,-55,-195
1,354817,-1423,368,-633,-130,-236,-93,58,-52,-200
1,354822,-1423,368,-633,-130,-236,-93,58,-52,-200
1,354827,-1423,368,-633,-130,-236,-93,58,-52,-200
1,354833,-1423,368,-633,-130,-236,-93,58,-52,-200
1,354838,-1424,367,-639,-135,-232,-88,58,-52,-200
1,354843,-1424,367,-639,-135,-232,-88,58,-52,-200
1,354849,-1424,367,-639,-135,-232,-88,58,-52,-200
1,354854,-1424,367,-639,-135,-232,-88,58,-52,-200
1,354861,-1426,366,-640,-132,-230,-88,58,-52,-200
1,354866,-1426,366,-640,-132,-230,-88,58,-52,-200
1,354871,-1426,366,-640,-132,-230,-88,58,-52,-200
1,354877,-1426,366,-636,-128,-234,-88,58,-52,-200
1,354882,-1426,366,-636,-128,-234,-88,58,-52,-200
1,354887,-1426,366,-636,-128,-234,-88,58,-52,-200
1,354893,-1426,366,-636,-128,-234,-88,58,-52,-200
1,354898,-1425,366,-636,-130,-238,-87,58,-52,-200
1,354905,-1425,366,-636,-130,-238,-87,58,-52,-200
1,354910,-1425,366,-636,-130,-238,-87,58,-52,-200
1,354915,-1423,370,-636,-128,-239,-96,58,-52,-200
1,354920,-1423,370,-636,-128,-239,-96,58,-52,-200
1,354926,-1423,370,-636,-128,-239,-96,58,-52,-200
1,354931,-1423,370,-636,-128,-239,-96,58,-52,-200
1,354937,-1427,368,-638,-132,-231,-88,68,-46,-194
1,354942,-1427,368,-638,-132,-231,-88,68,-46,-194
1,354948,-1427,368,-638,-132,-231,-88,68,-46,-194
1,354955,-1427,368,-638,-132,-231,-88,68,-46,-194
1,354962,-1425,369,-639,-129,-239,-88,68,-46,-194
1,354968,-1425,369,-639,-129,-239,-88,68,-46,-194
1,354973,-1425,369,-639,-129,-239,-88,68,-46,-194
1,354978,-1427,368,-636,-134,-225,-89,68,-46,-194
1,354983,-1427,368,-636,-134,-225,-89,68,-46,-194
1,354990,-1427,368,-636,-134,-225,-89,68,-46,-194
1,354995,-1427,365,-638,-136,-233,-97,68,-46,-194
1,355001,-1427,365,-638,-136,-233,-97,68,-46,-194
1,355006,-1427,365,-638,-136,-233,-97,68,-46,-194
1,355012,-1427,365,-638,-136,-233,-97,68,-46,-194
1,355018,-1424,369,-635,-129,-228,-91,68,-46,-194
1,355023,-1424,369,-635,-129,-228,-91,68,-46,-194
1,355030,-1424,369,-635,-129,-228,-91,68,-46,-194
1,355035,-1424,369,-635,-129,-228,-91,68,-46,-194
1,355040,-1425,369,-641,-134,-231,-86,68,-46,-194
1,355046,-1425,369,-641,-134,-231,-86,68,-46,-194
1,355051,-1425,369,-641,-134,-231,-86,68,-46,-194
1,355056,-1425,368,-634,-137,-228,-94,71,-57,-195
1,355062,-1425,368,-634,-137,-228,-94,71,-57,-195
1,355067,-1425,368,-634,-137,-228,-94,71,-57,-195
1,355074,-1425,368,-634,-137,-228,-94,71,-57,-195
1,355079,-1426,366,-634,-131,-234,-90,71,-57,-195
1,355084,-1426,366,-634,-131,-234,-90,71,-57,-195
1,355090,-1426,366,-634,-131,-234,-90,71,-57,-195
1,355095,-1426,366,-634,-131,-234,-90,71,-57,-195
1,355100,-1424,368,-638,-135,-228,-86,71,-57,-195
1,355106,-1424,368,-638,-135,-228,-86,71,-57,-195
1,355111,-1424,368,-638,-135,-228,-86,71,-57,-195
1,355117,-1427,365,-635,-135,-233,-83,71,-57,-195
1,355122,-1427,365,-635,-135,-233,-83,71,-57,-195
1,355127,-1427,365,-635,-135,-233,-83,71,-57,-195
1,355132,-1427,365,-635,-135,-233,-83,71,-57,-195
1,355137,-1424,370,-641,-129,-229,-91,71,-57,-195
1,355142,-1424,370,-641,-129,-229,-91,71,-57,-195
1,355148,-1424,370,-641,-129,-229,-91,71,-57,-195
1,355153,-1424,370,-641,-129,-229,-91,71,-57,-195
1,355160,-1426,370,-641,-131,-232,-96,71,-57,-195
1,355165,-1426,370,-641,-131,-232,-96,71,-57,-195
1,355171,-1426,370,-641,-131,-232,-96,71,-57,-195
1,355176,-1423,365,-632,-136,-229,-99,62,-58,-188
1,355181,-1423,365,-632,-136,-229,-99,62,-58,-188
1,355186,-1423,365,-632,-136,-229,-99,62,-58,-188
1,355192,-1423,365,-632,-136,-229,-99,62,-58,-188
1,355197,-1426,369,-639,-133,-227,-89,62,-58,-188
1,355204,-1426,369,-639,-133,-227,-89,62,-58,-188
1,355209,-1426,369,-639,-133,-227,-89,62,-58,-188
1,355214,-1426,369,-639,-133,-227,-89,62,-58,-188
1,355220,-1425,366,-637,-129,-228,-96,62,-58,-188
1,355225,-1425,366,-637,-129,-228,-96,62,-58,-188
1,355230,-1425,366,-637,-129,-228,-96,62,-58,-188
1,355235,-1422,364,-646,-128,-228,-95,62,-58,-188
1,355240,-1422,364,-646,-128,-228,-95,62,-58,-188
1,355246,-1422,364,-646,-128,-228,-95,62,-58,-188
1,355252,-1422,364,-646,-128,-228,-95,62,-58,-188
1,355257,-1423,366,-638,-133,-233,-99,62,-58,-188
1,355262,-1423,366,-638,-133,-233,-99,62,-58,-188
1,355268,-1423,366,-638,-133,-233,-99,62,-58,-188
1,355273,-1423,366,-638,-133,-233,-99,62,-58,-188
1,355279,-1422,369,-640,-134,-233,-93,62,-58,-188
1,355284,-1422,369,-640,-134,-233,-93,62,-58,-188
1,355290,-1422,369,-640,-134,-233,-93,62,-58,-188
1,355296,-1422,369,-640,-134,-233,-93,62,-58,-188
1,355301,-1426,369,-635,-133,-231,-92,62,-54,-190
1,355306,-1426,369,-635,-133,-231,-92,62,-54,-190
1,355312,-1426,369,-635,-133,-231,-92,62,-54,-190
1,355317,-1427,365,-639,-129,-234,-91,62,-54,-190
1,355323,-1427,365,-639,-129,-234,-91,62,-54,-190
1,355329,-1427,365,-639,-129,-234,-91,62,-54,-190
1,355335,-1427,365,-639,-129,-234,-91,62,-54,-190
1,355340,-1425,369,-636,-130,-234,-97,62,-54,-190
1,355345,-1425,369,-636,-130,-234,-97,62,-54,-190
1,355351,-1425,369,-636,-130,-234,-97,62,-54,-190
1,355356,-1425,367,-637,-129,-241,-93,62,-54,-190
1,355361,-1425,367,-637,-129,-241,-93,62,-54,-190
1,355367,-1425,367,-637,-129,-241,-93,62,-54,-190
1,355373,-1425,367,-637,-129,-241,-93,62,-54,-190
1,355377,-1424,368,-640,-134,-234,-95,62,-54,-190
1,355383,-1424,368,-640,-134,-234,-95,62,-54,-190
1,355388,-1424,368,-640,-134,-234,-95,62,-54,-190
1,355393,-1424,368,-640,-134,-234,-95,62,-54,-190
1,355399,-1424,369,-640,-127,-233,-91,62,-54,-190
1,355404,-1424,369,-640,-127,-233,-91,62,-54,-190
1,355409,-1424,369,-640,-127,-233,-91,62,-54,-190
1,355416,-1424,369,-640,-127,-233,-91,62,-54,-190
1,355421,-1423,364,-638,-134,-233,-91,67,-65,-197
1,355426,-1423,364,-638,-134,-233,-91,67,-65,-197
1,355432,-1423,364,-638,-134,-233,-91,67,-65,-197
1,355437,-1424,367,-637,-136,-236,-91,67,-65,-197
1,355442,-1424,367,-637,-136,-236,-91,67,-65,-197
1,355448,-1424,367,-637,-136,-236,-91,67,-65,-197
1,355453,-1424,367,-637,-136,-236,-91,67,-65,-197
1,355460,-1426,369,-634,-129,-237,-95,67,-65,-197
1,355465,-1426,369,-634,-129,-237,-95,67,-65,-197
1,355470,-1426,369,-634,-129,-237,-95,67,-65,-197
1,355476,-1424,365,-638,-128,-232,-96,67,-65,-197
1,355481,-1424,365,-638,-128,-232,-96,67,-65,-197
1,355486,-1424,365,-638,-128,-232,-96,67,-65,-197
1,355492,-1424,365,-638,-128,-232,-96,67,-65,-197
1,355497,-1424,370,-639,-134,-238,-87,67,-65,-197
1,355503,-1424,370,-639,-134,-238,-87,67,-65,-197
1,355508,-1424,370,-639,-134,-238,-87,67,-65,-197
1,355514,-1424,370,-639,-134,-238,-87,67,-65,-197
1,355519,-1426,369,-639,-126,-233,-92,67,-65,-197
1,355525,-1426,369,-639,-126,-233,-92,67,-65,-197
1,355530,-1426,369,-639,-126,-233,-92,67,-65,-197
1,355536,-1426,369,-639,-126,-233,-92,67,-65,-197
1,355542,-1426,369,-639,-126,-233,-92,67,-65,-197
1,355548,-1426,369,-639,-126,-233,-92,67,-65,-197
1,355552,-1426,369,-639,-126,-233,-92,67,-65,-197
1,355558,-1426,369,-637,-132,-234,-87,66,-58,-196
1,355563,-1426,369,-637,-132,-234,-87,66,-58,-196
1,355569,-1426,369,-637,-132,-234,-87,66,-58,-196
1,355574,-1426,369,-637,-132,-234,-87,66,-58,-196
1,355580,-1426,368,-635,-140,-224,-88,66,-58,-196
1,355586,-1426,368,-635,-140,-224,-88,66,-58,-196
1,355591,-1426,368,-635,-140,-224,-88,66,-58,-196
1,355596,-1426,366,-640,-135,-236,-89,66,-58,-196
1,355602,-1426,366,-640,-135,-236,-89,66,-58,-196
1,355608,-1426,366,-640,-135,-236,-89,66,-58,-196
1,355613,-1426,366,-640,-135,-236,-89,66,-58,-196
1,355619,-1424,365,-640,-135,-235,-86,66,-58,-196
1,355624,-1424,365,-640,-135,-235,-86,66,-58,-196
1,355630,-1424,365,-640,-135,-235,-86,66,-58,-196
1,355635,-1424,365,-640,-135,-235,-86,66,-58,-196
1,355640,-1426,368,-640,-131,-236,-86,66,-58,-196
1,355646,-1426,368,-640,-131,-236,-86,66,-58,-196
1,355651,-1426,368,-640,-131,-236,-86,66,-58,-196
1,355657,-1427,367,-637,-133,-233,-87,66,-58,-196
1,355662,-1427,367,-637,-133,-233,-87,66,-58,-196
1,355667,-1427,367,-637,-133,-233,-87,66,-58,-196
1,355673,-1427,367,-637,-133,-233,-87,66,-58,-196
1,355679,-1425,367,-636,-135,-225,-86,68,-58,-196
1,355684,-1425,367,-636,-135,-225,-86,68,-58,-196
1,355689,-1425,367,-636,-135,-225,-86,68,-58,-196
1,355695,-1425,367,-636,-135,-225,-86,68,-58,-196
1,355700,-1425,365,-635,-135,-225,-90,68,-58,-196
1,355705,-1425,365,-635,-135,-225,-90,68,-58,-196
1,355712,-1425,365,-635,-135,-225,-90,68,-58,-196
1,355717,-1423,368,-637,-133,-230,-94,68,-58,-196
1,355723,-1423,368,-637,-133,-230,-94,68,-58,-196
1,355728,-1423,368,-637,-133,-230,-94,68,-58,-196
1,355733,-1423,368,-637,-133,-230,-94,68,-58,-196
1,355738,-1426,368,-636,-131,-238,-89,68,-58,-196
1,355743,-1426,368,-636,-131,-238,-89,68,-58,-196
1,355748,-1426,368,-636,-131,-238,-89,68,-58,-196
1,355753,-1426,368,-636,-131,-238,-89,68,-58,-196
1,355760,-1429,367,-638,-127,-232,-87,68,-58,-196
1,355765,-1429,367,-638,-127,-232,-87,68,-58,-196
1,355770,-1429,367,-638,-127,-232,-87,68,-58,-196
1,355776,-1429,367,-638,-127,-232,-87,68,-58,-196
1,355781,-1426,368,-638,-131,-230,-91,68,-58,-196
1,355786,-1426,368,-638,-131,-230,-91,68,-58,-196
1,355791,-1426,368,-638,-131,-230,-91,68,-58,-196
1,355796,-1427,367,-633,-133,-236,-89,72,-62,-184
1,355803,-1427,367,-633,-133,-236,-89,72,-62,-184
1,355808,-1427,367,-633,-133,-236,-89,72,-62,-184
1,355813,-1427,367,-633,-133,-236,-89,72,-62,-184
1,355818,-1428,370,-635,-134,-226,-87,72,-62,-184
1,355823,-1428,370,-635,-134,-226,-87,72,-62,-184
1,355828,-1428,370,-635,-134,-226,-87,72,-62,-184
1,355834,-1428,370,-635,-134,-226,-87,72,-62,-184
1,355840,-1425,368,-639,-129,-224,-79,72,-62,-184
1,355846,-1425,368,-639,-129,-224,-79,72,-62,-184
1,355850,-1425,368,-639,-129,-224,-79,72,-62,-184
1,355856,-1425,368,-639,-129,-224,-79,72,-62,-184
1,355862,-1425,368,-637,-131,-223,-87,72,-62,-184
1,355867,-1425,368,-637,-131,-223,-87,72,-62,-184
1,355872,-1425,368,-637,-131,-223,-87,72,-62,-184
1,355878,-1424,368,-637,-129,-233,-95,72,-62,-184
1,355884,-1424,368,-637,-129,-233,-95,72,-62,-184
1,355889,-1424,368,-637,-129,-233,-95,72,-62,-184
1,355893,-1424,368,-637,-129,-233,-95,72,-62,-184
1,355898,-1425,367,-639,-136,-229,-96,72,-62,-184
1,355903,-1425,367,-639,-136,-229,-96,72,-62,-184
1,355908,-1425,367,-639,-136,-229,-96,72,-62,-184
1,355914,-1425,367,-639,-136,-229,-96,72,-62,-184
1,355918,-1423,369,-633,-135,-235,-91,65,-49,-197
1,355922,-1423,369,-633,-135,-235,-91,65,-49,-197
1,355927,-1423,369,-633,-135,-235,-91,65,-49,-197
1,355933,-1423,369,-633,-135,-235,-91,65,-49,-197
1,355938,-1425,367,-636,-133,-232,-89,65,-49,-197
1,355942,-1425,367,-636,-133,-232,-89,65,-49,-197
1,355948,-1425,367,-636,-133,-232,-89,65,-49,-197
1,355954,-1425,367,-636,-133,-232,-89,65,-49,-197
1,355959,-1422,370,-640,-135,-239,-94,65,-49,-197
1,355964,-1422,370,-640,-135,-239,-94,65,-49,-197
1,355971,-1422,370,-640,-135,-239,-94,65,-49,-197
1,355976,-1425,366,-640,-129,-240,-85,65,-49,-197
1,355982,-1425,366,-640,-129,-240,-85,65,-49,-197
1,355987,-1425,366,-640,-129,-240,-85,65,-49,-197
1,355992,-1425,366,-640,-129,-240,-85,65,-49,-197
1,355997,-1426,366,-639,-131,-236,-85,65,-49,-197
1,356003,-1426,366,-639,-131,-236,-85,65,-49,-197
1,356008,-1426,366,-639,-131,-236,-85,65,-49,-197
1,356014,-1426,366,-639,-131,-236,-85,65,-49,-197
1,356020,-1423,367,-640,-129,-233,-96,65,-49,-197
1,356025,-1423,367,-640,-129,-233,-96,65,-49,-197
1,356031,-1423,367,-640,-129,-233,-96,65,-49,-197
1,356036,-1423,367,-640,-129,-233,-96,65,-49,-197
1,356041,-1426,369,-642,-135,-238,-97,69,-65,-193
1,356046,-1426,369,-642,-135,-238,-97,69,-65,-193
1,356052,-1426,369,-642,-135,-238,-97,69,-65,-193
1,356058,-1424,367,-634,-136,-237,-88,69,-65,-193
1,356063,-1424,367,-634,-136,-237,-88,69,-65,-193
1,356069,-1424,367,-634,-136,-237,-88,69,-65,-193
1,356074,-1424,367,-634,-136,-237,-88,69,-65,-193
1,356080,-1428,370,-639,-143,-235,-94,69,-65,-193
1,356085,-1428,370,-639,-143,-235,-94,69,-65,-193
1,356091,-1428,370,-639,-143,-235,-94,69,-65,-193
1,356097,-1425,366,-639,-133,-238,-94,69,-65,-193
1,356103,-1425,366,-639,-133,-238,-94,69,-65,-193
1,356109,-1425,366,-639,-133,-238,-94,69,-65,-193
1,356114,-1425,366,-639,-133,-238,-94,69,-65,-193
1,356119,-1428,367,-641,-125,-238,-93,69,-65,-193
1,356124,-1428,367,-641,-125,-238,-93,69,-65,-193
1,356129,-1428,367,-641,-125,-238,-93,69,-65,-193
1,356135,-1428,367,-641,-125,-238,-93,69,-65,-193
1,356141,-1427,366,-639,-126,-233,-93,69,-65,-193
1,356147,-1427,366,-639,-126,-233,-93,69,-65,-193
1,356151,-1427,366,-639,-126,-233,-93,69,-65,-193
1,356157,-1427,367,-638,-129,-224,-88,70,-60,-190
1,356163,-1427,367,-638,-129,-224,-88,70,-60,-190
1,356168,-1427,367,-638,-129,-224,-88,70,-60,-190
1,356173,-1427,367,-638,-129,-224,-88,70,-60,-190
1,356178,-1424,367,-635,-131,-229,-88,70,-60,-190
1,356184,-1424,367,-635,-131,-229,-88,70,-60,-190
1,356190,-1424,367,-635,-131,-229,-88,70,-60,-190
1,356195,-1424,367,-635,-131,-229,-88,70,-60,-190
1,356201,-1429,367,-639,-130,-235,-87,70,-60,-190
1,356206,-1429,367,-639,-130,-235,-87,70,-60,-190
1,356212,-1429,367,-639,-130,-235,-87,70,-60,-190
1,356217,-1429,366,-634,-134,-232,-95,70,-60,-190
1,356222,-1429,366,-634,-134,-232,-95,70,-60,-190
1,356229,-1429,366,-634,-134,-232,-95,70,-60,-190
1,356235,-1429,366,-634,-134,-232,-95,70,-60,-190
1,356240,-1426,367,-644,-131,-234,-96,70,-60,-190
1,356245,-1426,367,-644,-131,-234,-96,70,-60,-190
1,356250,-1426,367,-644,-131,-234,-96,70,-60,-190
1,356256,-1426,367,-644,-131,-234,-96,70,-60,-190
1,356260,-1424,368,-639,-130,-234,-91,70,-60,-190
1,356267,-1424,368,-639,-130,-234,-91,70,-60,-190
1,356272,-1424,368,-639,-130,-234,-91,70,-60,-190
1,356278,-1426,368,-637,-136,-232,-88,70,-60,-190
1,356283,-1426,368,-637,-136,-232,-88,70,-60,-190
1,356289,-1426,368,-637,-136,-232,-88,70,-60,-190
1,356294,-1426,368,-637,-136,-232,-88,70,-60,-190
1,356299,-1424,368,-641,-138,-234,-94,60,-58,-196
1,356304,-1424,368,-641,-138,-234,-94,60,-58,-196
1,356310,-1424,368,-641,-138,-234,-94,60,-58,-196
1,356316,-1424,368,-641,-138,-234,-94,60,-58,-196
1,356322,-1426,368,-640,-137,-234,-93,60,-58,-196
1,356327,-1426,368,-640,-137,-234,-93,60,-58,-196
1,356333,-1426,368,-640,-137,-234,-93,60,-58,-196
1,356338,-1425,368,-640,-130,-227,-96,60,-58,-196
1,356343,-1425,368,-640,-130,-227,-96,60,-58,-196
1,356348,-1425,368,-640,-130,-227,-96,60,-58,-196
1,356355,-1425,368,-640,-130,-227,-96,60,-58,-196
1,356360,-1425,367,-638,-132,-237,-85,60,-58,-196
1,356365,-1425,367,-638,-132,-237,-85,60,-58,-196
1,356371,-1425,367,-638,-132,-237,-85,60,-58,-196
1,356376,-1425,367,-638,-132,-237,-85,60,-58,-196
1,356381,-1423,368,-638,-136,-239,-83,60,-58,-196
1,356386,-1423,368,-638,-136,-239,-83,60,-58,-196
1,356392,-1423,368,-638,-136,-239,-83,60,-58,-196
1,356398,-1426,367,-637,-129,-235,-91,60,-58,-196
1,356404,-1426,367,-637,-129,-235,-91,60,-58,-196
1,356408,-1426,367,-637,-129,-235,-91,60,-58,-196
1,356414,-1426,367,-637,-129,-235,-91,60,-58,-196
1,356420,-1427,368,-637,-134,-238,-89,66,-62,-198
1,356425,-1427,368,-637,-134,-238,-89,66,-62,-198
1,356430,-1427,368,-637,-134,-238,-89,66,-62,-198
1,356436,-1427,368,-637,-134,-238,-89,66,-62,-198
1,356442,-1425,367,-639,-144,-235,-88,66,-62,-198
1,356448,-1425,367,-639,-144,-235,-88,66,-62,-198
1,356453,-1425,367,-639,-144,-235,-88,66,-62,-198
1,356459,-1425,367,-639,-144,-235,-88,66,-62,-198
1,356464,-1425,367,-639,-144,-235,-88,66,-62,-198
1,356470,-1425,367,-639,-144,-235,-88,66,-62,-198
1,356476,-1425,367,-639,-144,-235,-88,66,-62,-198
1,356482,-1428,369,-647,-133,-234,-82,66,-62,-198
1,356487,-1428,369,-647,-133,-234,-82,66,-62,-198
1,356492,-1428,369,-647,-133,-234,-82,66,-62,-198
1,356497,-1427,368,-643,-132,-227,-92,66,-62,-198
1,356503,-1427,368,-643,-132,-227,-92,66,-62,-198
1,356508,-1427,368,-643,-132,-227,-92,66,-62,-198
1,356513,-1427,368,-643,-132,-227,-92,66,-62,-198
1,356519,-1425,367,-640,-128,-218,-96,66,-62,-198
1,356525,-1425,367,-640,-128,-218,-96,66,-62,-198
1,356530,-1425,367,-640,-128,-218,-96,66,-62,-198
1,356535,-1425,367,-640,-128,-218,-96,66,-62,-198
1,356540,-1425,367,-640,-128,-218,-96,70,-66,-188
1,356546,-1425,367,-640,-128,-218,-96,70,-66,-188
1,356552,-1425,367,-640,-128,-218,-96,70,-66,-188
1,356557,-1424,368,-636,-136,-220,-97,70,-66,-188
1,356563,-1424,368,-636,-136,-220,-97,70,-66,-188
1,356569,-1424,368,-636,-136,-220,-97,70,-66,-188
1,356575,-1424,368,-636,-136,-220,-97,70,-66,-188
1,356580,-1425,369,-637,-135,-235,-102,70,-66,-188
1,356586,-1425,369,-637,-135,-235,-102,70,-66,-188
1,356591,-1425,369,-637,-135,-235,-102,70,-66,-188
1,356597,-1426,369,-638,-133,-237,-96,70,-66,-188
1,356602,-1426,369,-638,-133,-237,-96,70,-66,-188
1,356609,-1426,369,-638,-133,-237,-96,70,-66,-188
1,356614,-1426,369,-638,-133,-237,-96,70,-66,-188
1,356619,-1426,366,-638,-131,-237,-87,70,-66,-188
1,356625,-1426,366,-638,-131,-237,-87,70,-66,-188
1,356630,-1426,366,-638,-131,-237,-87,70,-66,-188
1,356635,-1426,366,-638,-131,-237,-87,70,-66,-188
1,356641,-1427,366,-639,-136,-233,-85,70,-66,-188
1,356646,-1427,366,-639,-136,-233,-85,70,-66,-188
1,356652,-1427,366,-639,-136,-233,-85,70,-66,-188
1,356658,-1429,370,-635,-131,-235,-87,62,-54,-190
1,356663,-1429,370,-635,-131,-235,-87,62,-54,-190
1,356669,-1429,370,-635,-131,-235,-87,62,-54,-190
1,356674,-1429,370,-635,-131,-235,-87,62,-54,-190
1,356680,-1428,368,-633,-133,-238,-98,62,-54,-190
1,356685,-1428,368,-633,-133,-238,-98,62,-54,-190
1,356690,-1428,368,-633,-133,-238,-98,62,-54,-190
1,356697,-1428,368,-633,-133,-238,-98,62,-54,-190
1,356702,-1428,368,-636,-130,-237,-101,62,-54,-190
1,356707,-1428,368,-636,-130,-237,-101,62,-54,-190
1,356713,-1428,368,-636,-130,-237,-101,62,-54,-190
1,356718,-1426,369,-636,-130,-234,-96,62,-54,-190
1,356723,-1426,369,-636,-130,-234,-96,62,-54,-190
1,356729,-1426,369,-636,-130,-234,-96,62,-54,-190
1,356734,-1426,369,-636,-130,-234,-96,62,-54,-190
1,356740,-1425,368,-640,-134,-234,-84,62,-54,-190
1,356745,-1425,368,-640,-134,-234,-84,62,-54,-190
1,356751,-1425,368,-640,-134,-234,-84,62,-54,-190
1,356756,-1425,368,-640,-134,-234,-84,62,-54,-190
1,356762,-1426,366,-639,-140,-240,-93,62,-54,-190
1,356768,-1426,366,-639,-140,-240,-93,62,-54,-190
1,356773,-1426,366,-639,-140,-240,-93,62,-54,-190
1,356779,-1427,367,-637,-139,-235,-91,61,-63,-191
1,356785,-1427,367,-637,-139,-235,-91,61,-63,-191
1,356790,-1427,367,-637,-139,-235,-91,61,-63,-191
1,356796,-1427,367,-637,-139,-235,-91,61,-63,-191
1,356801,-1426,367,-636,-136,-234,-92,61,-63,-191
1,356807,-1426,367,-636,-136,-234,-92,61,-63,-191
1,356813,-1426,367,-636,-136,-234,-92,61,-63,-191
1,356818,-1427,366,-639,-130,-237,-92,61,-63,-191
1,356825,-1427,366,-639,-130,-237,-92,61,-63,-191
1,356830,-1427,366,-639,-130,-237,-92,61,-63,-191
1,356836,-1427,366,-639,-130,-237,-92,61,-63,-191
1,356841,-1429,368,-640,-133,-238,-95,61,-63,-191
1,356846,-1429,368,-640,-133,-238,-95,61,-63,-191
1,356851,-1429,368,-640,-133,-238,-95,61,-63,-191
1,356857,-1426,367,-638,-134,-234,-95,61,-63,-191
1,356862,-1426,367,-638,-134,-234,-95,61,-63,-191
1,356869,-1426,367,-638,-134,-234,-95,61,-63,-191
1,356874,-1426,367,-638,-134,-234,-95,61,-63,-191
1,356880,-1423,366,-643,-131,-233,-91,61,-63,-191
1,356885,-1423,366,-643,-131,-233,-91,61,-63,-191
1,356890,-1423,366,-643,-131,-233,-91,61,-63,-191
1,356896,-1423,366,-643,-131,-233,-91,61,-63,-191
1,356901,-1425,367,-637,-126,-235,-98,61,-63,-191
1,356907,-1425,367,-637,-126,-235,-98,61,-63,-191
1,356913,-1425,367,-637,-126,-235,-98,61,-63,-191
1,356918,-1424,366,-637,-137,-230,-91,68,-60,-196
1,356923,-1424,366,-637,-137,-230,-91,68,-60,-196
1,356929,-1424,366,-637,-137,-230,-91,68,-60,-196
1,356934,-1424,366,-637,-137,-230,-91,68,-60,-196
1,356939,-1424,366,-639,-136,-231,-95,68,-60,-196
1,356944,-1424,366,-639,-136,-231,-95,68,-60,-196
1,356951,-1424,366,-639,-136,-231,-95,68,-60,-196
1,356956,-1424,366,-639,-136,-231,-95,68,-60,-196
1,356961,-1427,366,-638,-135,-229,-92,68,-60,-196
1,356967,-1427,366,-638,-135,-229,-92,68,-60,-196
1,356973,-1427,366,-638,-135,-229,-92,68,-60,-196
1,356978,-1426,368,-636,-133,-231,-97,68,-60,-196
1,356983,-1426,368,-636,-133,-231,-97,68,-60,-196
1,356988,-1426,368,-636,-133,-231,-97,68,-60,-196
1,356994,-1426,368,-636,-133,-231,-97,68,-60,-196
1,356999,-1423,368,-638,-124,-232,-90,68,-60,-196
1,357005,-1423,368,-638,-124,-232,-90,68,-60,-196
1,357010,-1423,368,-638,-124,-232,-90,68,-60,-196
1,357016,-1423,368,-638,-124,-232,-90,68,-60,-196
1,357021,-1424,366,-639,-129,-235,-95,68,-60,-196
1,357027,-1424,366,-639,-129,-235,-95,68,-60,-196
1,357032,-1424,366,-639,-129,-235,-95,68,-60,-196
1,357038,-1422,368,-639,-131,-228,-98,64,-60,-196
1,357043,-1422,368,-639,-131,-228,-98,64,-50,-198
1,357049,-1422,368,-639,-131,-228,-98,64,-50,-198
1,357054,-1422,368,-639,-131,-228,-98,64,-50,-198
1,357060,-1424,366,-637,-128,-227,-97,64,-50,-198
1,357065,-1424,366,-637,-128,-227,-97,64,-50,-198
1,357071,-1424,366,-637,-128,-227,-97,64,-50,-198
1,357076,-1424,366,-637,-128,-227,-97,64,-50,-198
1,357082,-1424,368,-639,-126,-234,-95,64,-50,-198
1,357087,-1424,368,-639,-126,-234,-95,64,-50,-198
1,357092,-1424,368,-639,-126,-234,-95,64,-50,-198
1,357097,-1427,369,-636,-132,-234,-93,64,-50,-198
1,357103,-1427,369,-636,-132,-234,-93,64,-50,-198
1,357108,-1427,369,-636,-132,-234,-93,64,-50,-198
1,357113,-1427,369,-636,-132,-234,-93,64,-50,-198
1,357120,-1426,370,-638,-132,-234,-90,64,-50,-198
1,357125,-1426,370,-638,-132,-234,-90,64,-50,-198
1,357131,-1426,370,-638,-132,-234,-90,64,-50,-198
1,357137,-1426,370,-638,-132,-234,-90,64,-50,-198
1,357142,-1426,369,-638,-126,-235,-84,64,-50,-198
1,357147,-1426,369,-638,-126,-235,-84,64,-50,-198
1,357152,-1426,369,-638,-126,-235,-84,64,-50,-198
1,357158,-1427,370,-635,-130,-232,-88,62,-56,-200
1,357165,-1427,370,-635,-130,-232,-88,62,-56,-200
1,357170,-1427,370,-635,-130,-232,-88,62,-56,-200
1,357176,-1427,370,-635,-130,-232,-88,62,-56,-200
1,357181,-1426,366,-634,-124,-234,-95,62,-56,-200
1,357186,-1426,366,-634,-124,-234,-95,62,-56,-200
1,357191,-1426,366,-634,-124,-234,-95,62,-56,-200
1,357197,-1426,366,-634,-124,-234,-95,62,-56,-200
1,357202,-1426,369,-638,-129,-235,-90,62,-56,-200
1,357209,-1426,369,-638,-129,-235,-90,62,-56,-200
1,357214,-1426,369,-638,-129,-235,-90,62,-56,-200
1,357220,-1426,367,-635,-130,-227,-94,62,-56,-200
1,357225,-1426,367,-635,-130,-227,-94,62,-56,-200
1,357230,-1426,367,-635,-130,-227,-94,62,-56,-200
1,357235,-1426,367,-635,-130,-227,-94,62,-56,-200
1,357240,-1427,369,-637,-130,-233,-85,62,-56,-200
1,357246,-1427,369,-637,-130,-233,-85,62,-56,-200
1,357252,-1427,369,-637,-130,-233,-85,62,-56,-200
1,357257,-1427,369,-637,-130,-233,-85,62,-56,-200
1,357263,-1425,368,-638,-140,-230,-86,62,-56,-200
1,357268,-1425,368,-638,-140,-230,-86,62,-56,-200
1,357273,-1425,368,-638,-140,-230,-86,62,-56,-200
1,357279,-1423,366,-631,-132,-226,-90,67,-61,-195
1,357284,-1423,366,-631,-132,-226,-90,67,-61,-195
1,357291,-1423,366,-631,-132,-226,-90,67,-61,-195
1,357296,-1423,366,-631,-132,-226,-90,67,-61,-195
1,357302,-1423,366,-631,-132,-226,-90,67,-61,-195
1,357308,-1423,366,-631,-132,-226,-90,67,-61,-195
1,357313,-1423,366,-631,-132,-226,-90,67,-61,-195
1,357318,-1426,368,-642,-136,-235,-96,67,-61,-195
1,357324,-1426,368,-642,-136,-235,-96,67,-61,-195
1,357329,-1426,368,-642,-136,-235,-96,67,-61,-195
1,357335,-1426,368,-642,-136,-235,-96,67,-61,-195
1,357341,-1424,366,-641,-138,-237,-95,67,-61,-195
1,357346,-1424,366,-641,-138,-237,-95,67,-61,-195
1,357352,-1424,366,-641,-138,-237,-95,67,-61,-195
1,357357,-1424,366,-641,-138,-237,-95,67,-61,-195
1,357362,-1428,370,-640,-132,-237,-93,67,-61,-195
1,357367,-1428,370,-640,-132,-237,-93,67,-61,-195
1,357372,-1428,370,-640,-132,-237,-93,67,-61,-195
1,357379,-1425,365,-634,-130,-232,-93,67,-61,-195
1,357383,-1425,365,-634,-130,-232,-93,67,-61,-195
1,357389,-1425,365,-634,-130,-232,-93,67,-61,-195
1,357394,-1425,365,-634,-130,-232,-93,67,-61,-195
1,357399,-1423,369,-635,-132,-236,-82,62,-54,-182
1,357404,-1423,369,-635,-132,-236,-82,62,-54,-182
1,357409,-1423,369,-635,-132,-236,-82,62,-54,-182
1,357414,-1423,369,-635,-132,-236,-82,62,-54,-182
1,357420,-1426,368,-635,-133,-233,-82,62,-54,-182
1,357426,-1426,368,-635,-133,-233,-82,62,-54,-182
1,357431,-1426,368,-635,-133,-233,-82,62,-54,-182
1,357436,-1426,368,-635,-133,-233,-82,62,-54,-182
1,357441,-1428,367,-638,-130,-228,-90,62,-54,-182
1,357447,-1428,367,-638,-130,-228,-90,62,-54,-182
1,357452,-1428,367,-638,-130,-228,-90,62,-54,-182
1,357457,-1428,369,-638,-133,-238,-94,62,-54,-182
1,357464,-1428,369,-638,-133,-238,-94,62,-54,-182
1,357470,-1428,369,-638,-133,-238,-94,62,-54,-182
1,357475,-1428,369,-638,-133,-238,-94,62,-54,-182
1,357480,-1424,366,-639,-129,-232,-88,62,-54,-182
1,357486,-1424,366,-639,-129,-232,-88,62,-54,-182
1,357491,-1424,366,-639,-129,-232,-88,62,-54,-182
1,357496,-1424,366,-639,-129,-232,-88,62,-54,-182
1,357501,-1424,368,-639,-135,-225,-93,62,-54,-182
1,357508,-1424,368,-639,-135,-225,-93,62,-54,-182
1,357514,-1424,368,-639,-135,-225,-93,62,-54,-182
1,357519,-1427,369,-639,-125,-228,-92,73,-59,-193
1,357525,-1427,369,-639,-125,-228,-92,73,-59,-193
1,357532,-1427,369,-639,-125,-228,-92,73,-59,-193
1,357537,-1427,369,-639,-125,-228,-92,73,-59,-193
1,357542,-1427,368,-636,-130,-229,-94,73,-59,-193
1,357548,-1427,368,-636,-130,-229,-94,73,-59,-193
1,357554,-1427,368,-636,-130,-229,-94,73,-59,-193
1,357559,-1423,368,-638,-130,-230,-93,73,-59,-193
1,357565,-1423,368,-638,-130,-230,-93,73,-59,-193
1,357570,-1423,368,-638,-130,-230,-93,73,-59,-193
1,357575,-1423,368,-638,-130,-230,-93,73,-59,-193
1,357580,-1426,367,-638,-133,-229,-91,73,-59,-193
1,357586,-1426,367,-638,-133,-229,-91,73,-59,-193
1,357592,-1426,367,-638,-133,-229,-91,73,-59,-193
1,357598,-1426,367,-638,-133,-229,-91,73,-59,-193
1,357603,-1426,368,-639,-133,-238,-90,73,-59,-193
1,357608,-1426,368,-639,-133,-238,-90,73,-59,-193
1,357613,-1426,368,-639,-133,-238,-90,73,-59,-193
1,357619,-1425,369,-638,-129,-227,-91,73,-59,-193
1,357624,-1425,369,-638,-129,-227,-91,73,-59,-193
1,357629,-1425,369,-638,-129,-227,-91,73,-59,-193
1,357635,-1425,369,-638,-129,-227,-91,73,-59,-193
1,357640,-1426,366,-640,-132,-232,-93,73,-59,-193
1,357646,-1426,366,-640,-132,-232,-93,73,-59,-193
1,357652,-1426,366,-640,-132,-232,-93,73,-59,-193
1,357658,-1427,368,-632,-126,-227,-93,73,-59,-193
1,357663,-1427,368,-632,-126,-227,-93,66,-60,-198
1,357669,-1427,368,-632,-126,-227,-93,66,-60,-198
1,357675,-1427,368,-632,-126,-227,-93,66,-60,-198
1,357681,-1424,368,-637,-126,-233,-94,66,-60,-198
1,357686,-1424,368,-637,-126,-233,-94,66,-60,-198
1,357691,-1424,368,-637,-126,-233,-94,66,-60,-198
1,357697,-1424,368,-637,-126,-233,-94,66,-60,-198
1,357702,-1420,371,-635,-131,-232,-94,66,-60,-198
1,357707,-1420,371,-635,-131,-232,-94,66,-60,-198
1,357712,-1420,371,-635,-131,-232,-94,66,-60,-198
1,357718,-1420,371,-635,-131,-232,-94,66,-60,-198
1,357723,-1426,367,-639,-129,-231,-94,66,-60,-198
1,357729,-1426,367,-639,-129,-231,-94,66,-60,-198
1,357734,-1426,367,-639,-129,-231,-94,66,-60,-198
1,357739,-1427,369,-642,-131,-234,-91,66,-60,-198
