imu,time,ax,ay,az,gx,gy,gz,mx,my,mz
0,151618,340,684,-2590,-1493,-302,-47,251,161,-371
0,151626,340,684,-2590,-1493,-302,-47,251,161,-371
0,151634,340,684,-2590,-1493,-302,-47,251,161,-371
0,151643,341,685,-2600,-1487,-302,-44,251,161,-371
0,151650,341,685,-2600,-1487,-302,-44,251,161,-371
0,151658,341,685,-2600,-1487,-302,-44,251,161,-371
0,151664,341,685,-2600,-1487,-302,-44,251,161,-371
0,151671,341,685,-2600,-1487,-302,-44,251,161,-371
0,151678,342,683,-2594,-1484,-300,-48,251,161,-371
0,151685,342,683,-2594,-1484,-300,-48,251,161,-371
0,151691,342,683,-2594,-1484,-300,-48,251,161,-371
0,151697,341,685,-2599,-1491,-300,-43,251,161,-371
0,151703,341,685,-2599,-1491,-300,-43,251,161,-371
0,151709,341,685,-2599,-1491,-300,-43,251,161,-371
0,151716,344,682,-2594,-1489,-301,-36,251,161,-371
0,151723,344,682,-2594,-1489,-301,-36,251,161,-371
0,151729,344,682,-2594,-1489,-301,-36,251,161,-371
0,151735,344,682,-2594,-1489,-301,-36,251,161,-371
0,151741,340,684,-2588,-1486,-298,-45,256,174,-370
0,151746,340,684,-2588,-1486,-298,-45,256,174,-370
0,151752,340,684,-2588,-1486,-298,-45,256,174,-370
0,151757,338,683,-2598,-1484,-305,-47,256,174,-370
0,151763,338,683,-2598,-1484,-305,-47,256,174,-370
0,151769,338,683,-2598,-1484,-305,-47,256,174,-370
0,151774,338,683,-2598,-1484,-305,-47,256,174,-370
0,151780,344,682,-2592,-1485,-297,-44,256,174,-370
0,151785,344,682,-2592,-1485,-297,-44,256,174,-370
0,151791,344,682,-2592,-1485,-297,-44,256,174,-370
0,151797,339,687,-2595,-1486,-304,-44,256,174,-370
0,151802,339,687,-2595,-1486,-304,-44,256,174,-370
0,151809,339,687,-2595,-1486,-304,-44,256,174,-370
0,151814,339,687,-2595,-1486,-304,-44,256,174,-370
0,151819,340,685,-2594,-1489,-305,-50,256,174,-370
0,151824,340,685,-2594,-1489,-305,-50,256,174,-370
0,151830,340,685,-2594,-1489,-305,-50,256,174,-370
0,151835,340,685,-2594,-1489,-305,-50,256,174,-370
0,151841,342,685,-2595,-1493,-299,-56,256,174,-370
0,151846,342,685,-2595,-1493,-299,-56,256,174,-370
0,151852,342,685,-2595,-1493,-299,-56,256,174,-370
0,151857,339,685,-2592,-1495,-304,-57,255,163,-371
0,151862,339,685,-2592,-1495,-304,-57,255,163,-371
0,151868,339,685,-2592,-1495,-304,-57,255,163,-371
0,151873,339,685,-2592,-1495,-304,-57,255,163,-371
0,151878,340,683,-2594,-1486,-300,-44,255,163,-371
0,151883,340,683,-2594,-1486,-300,-44,255,163,-371
0,151888,340,683,-2594,-1486,-300,-44,255,163,-371
0,151895,340,683,-2594,-1486,-300,-44,255,163,-371
0,151900,338,685,-2589,-1482,-306,-47,255,163,-371
0,151906,338,685,-2589,-1482,-306,-47,255,163,-371
0,151911,338,685,-2589,-1482,-306,-47,255,163,-371
0,151917,339,685,-2598,-1488,-301,-48,255,163,-371
0,151922,339,685,-2598,-1488,-301,-48,255,163,-371
0,151928,339,685,-2598,-1488,-301,-48,255,163,-371
0,151934,339,685,-2598,-1488,-301,-48,255,163,-371
0,151940,337,684,-2598,-1494,-306,-45,255,163,-371
0,151945,337,684,-2598,-1494,-306,-45,255,163,-371
0,151950,337,684,-2598,-1494,-306,-45,255,163,-371
0,151956,337,684,-2598,-1494,-306,-45,255,163,-371
0,151961,339,684,-2591,-1490,-307,-47,255,163,-371
0,151966,339,684,-2591,-1490,-307,-47,255,163,-371
0,151972,339,684,-2591,-1490,-307,-47,255,163,-371
0,151979,343,685,-2592,-1487,-305,-50,249,163,-365
0,151984,343,685,-2592,-1487,-305,-50,249,163,-365
0,151989,343,685,-2592,-1487,-305,-50,249,163,-365
0,151994,343,685,-2592,-1487,-305,-50,249,163,-365
0,151999,340,688,-2593,-1484,-303,-51,249,163,-365
0,152005,340,688,-2593,-1484,-303,-51,249,163,-365
0,152010,340,688,-2593,-1484,-303,-51,249,163,-365
0,152016,339,686,-2594,-1487,-301,-51,249,163,-365
0,152023,339,686,-2594,-1487,-301,-51,249,163,-365
0,152028,339,686,-2594,-1487,-301,-51,249,163,-365
0,152033,339,686,-2594,-1487,-301,-51,249,163,-365
0,152038,342,687,-2597,-1490,-307,-50,249,163,-365
0,152044,342,687,-2597,-1490,-307,-50,249,163,-365
0,152050,342,687,-2597,-1490,-307,-50,249,163,-365
0,152056,342,687,-2597,-1490,-307,-50,249,163,-365
0,152061,342,682,-2596,-1492,-305,-49,249,163,-365
0,152067,342,682,-2596,-1492,-305,-49,249,163,-365
0,152072,342,682,-2596,-1492,-305,-49,249,163,-365
0,152077,341,684,-2598,-1487,-306,-44,249,163,-365
0,152083,341,684,-2598,-1487,-306,-44,249,163,-365
0,152088,341,684,-2598,-1487,-306,-44,249,163,-365
0,152095,341,684,-2598,-1487,-306,-44,249,163,-365
0,152102,341,679,-2592,-1483,-299,-45,249,163,-365
0,152109,341,679,-2592,-1483,-299,-45,249,163,-365
0,152114,341,679,-2592,-1483,-299,-45,249,163,-365
0,152119,342,684,-2593,-1492,-296,-50,250,164,-366
0,152124,342,684,-2593,-1492,-296,-50,250,164,-366
0,152130,342,684,-2593,-1492,-296,-50,250,164,-366
0,152135,342,684,-2593,-1492,-296,-50,250,164,-366
0,152140,343,683,-2591,-1489,-302,-47,250,164,-366
0,152145,343,683,-2591,-1489,-302,-47,250,164,-366
0,152151,343,683,-2591,-1489,-302,-47,250,164,-366
0,152157,343,683,-2591,-1489,-302,-47,250,164,-366
0,152162,341,688,-2593,-1488,-300,-43,250,164,-366
0,152168,341,688,-2593,-1488,-300,-43,250,164,-366
0,152174,341,688,-2593,-1488,-300,-43,250,164,-366
0,152179,337,682,-2598,-1484,-300,-41,250,164,-366
0,152184,337,682,-2598,-1484,-300,-41,250,164,-366
0,152190,337,682,-2598,-1484,-300,-41,250,164,-366
0,152196,337,682,-2598,-1484,-300,-41,250,164,-366
0,152201,339,683,-2595,-1489,-297,-46,250,164,-366
0,152206,339,683,-2595,-1489,-297,-46,250,164,-366
0,152212,339,683,-2595,-1489,-297,-46,250,164,-366
0,152218,340,688,-2599,-1489,-303,-44,250,164,-366
0,152223,340,688,-2599,-1489,-303,-44,250,164,-366
0,152228,340,688,-2599,-1489,-303,-44,250,164,-366
0,152233,340,688,-2599,-1489,-303,-44,250,164,-366
0,152240,342,688,-2586,-1488,-303,-48,258,168,-370
0,152245,342,688,-2586,-1488,-303,-48,258,168,-370
0,152250,342,688,-2586,-1488,-303,-48,258,168,-370
0,152256,342,688,-2586,-1488,-303,-48,258,168,-370
0,152261,345,683,-2595,-1486,-301,-46,258,168,-370
0,152266,345,683,-2595,-1486,-301,-46,258,168,-370
0,152271,345,683,-2595,-1486,-301,-46,258,168,-370
0,152278,337,684,-2599,-1490,-301,-46,258,168,-370
0,152283,337,684,-2599,-1490,-301,-46,258,168,-370
0,152289,337,684,-2599,-1490,-301,-46,258,168,-370
0,152294,337,684,-2599,-1490,-301,-46,258,168,-370
0,152300,341,686,-2595,-1489,-304,-50,258,168,-370
0,152305,341,686,-2595,-1489,-304,-50,258,168,-370
0,152310,341,686,-2595,-1489,-304,-50,258,168,-370
0,152316,341,686,-2595,-1489,-304,-50,258,168,-370
0,152322,341,686,-2595,-1489,-304,-50,258,168,-370
0,152328,341,686,-2595,-1489,-304,-50,258,168,-370
0,152333,341,686,-2595,-1489,-304,-50,258,168,-370
0,152339,340,682,-2600,-1488,-303,-50,258,168,-370
0,152344,340,682,-2600,-1488,-303,-50,258,168,-370
0,152350,340,682,-2600,-1488,-303,-50,258,168,-370
0,152355,340,682,-2600,-1488,-303,-50,258,168,-370
0,152360,341,684,-2593,-1483,-312,-48,255,165,-369
0,152367,341,684,-2593,-1483,-312,-48,255,165,-369
0,152372,341,684,-2593,-1483,-312,-48,255,165,-369
0,152378,339,684,-2592,-1493,-309,-43,255,165,-369
0,152383,339,684,-2592,-1493,-309,-43,255,165,-369
0,152388,339,684,-2592,-1493,-309,-43,255,165,-369
0,152394,339,684,-2592,-1493,-309,-43,255,165,-369
0,152399,342,684,-2594,-1488,-307,-54,255,165,-369
0,152404,342,684,-2594,-1488,-307,-54,255,165,-369
0,152411,342,684,-2594,-1488,-307,-54,255,165,-369
0,152416,342,684,-2594,-1488,-307,-54,255,165,-369
0,152422,341,686,-2592,-1484,-308,-49,255,165,-369
0,152427,341,686,-2592,-1484,-308,-49,255,165,-369
0,152432,341,686,-2592,-1484,-308,-49,255,165,-369
0,152438,338,682,-2595,-1486,-299,-51,255,165,-369
0,152443,338,682,-2595,-1486,-299,-51,255,165,-369
0,152450,338,682,-2595,-1486,-299,-51,255,165,-369
0,152455,338,682,-2595,-1486,-299,-51,255,165,-369
0,152461,340,686,-2596,-1489,-306,-49,255,165,-369
0,152467,340,686,-2596,-1489,-306,-49,255,165,-369
0,152472,340,686,-2596,-1489,-306,-49,255,165,-369
0,152478,341,686,-2592,-1481,-310,-52,256,162,-364
0,152484,341,686,-2592,-1481,-310,-52,256,162,-364
0,152489,341,686,-2592,-1481,-310,-52,256,162,-364
0,152495,341,686,-2592,-1481,-310,-52,256,162,-364
0,152501,344,683,-2591,-1489,-301,-50,256,162,-364
0,152506,344,683,-2591,-1489,-301,-50,256,162,-364
0,152511,344,683,-2591,-1489,-301,-50,256,162,-364
0,152517,341,683,-2600,-1492,-303,-46,256,162,-364
0,152523,341,683,-2600,-1492,-303,-46,256,162,-364
0,152528,341,683,-2600,-1492,-303,-46,256,162,-364
0,152534,341,683,-2600,-1492,-303,-46,256,162,-364
0,152539,344,683,-2595,-1494,-295,-48,256,162,-364
0,152545,344,683,-2595,-1494,-295,-48,256,162,-364
0,152550,344,683,-2595,-1494,-295,-48,256,162,-364
0,152555,344,683,-2595,-1494,-295,-48,256,162,-364
0,152561,341,686,-2595,-1491,-305,-38,256,162,-364
0,152566,341,686,-2595,-1491,-305,-38,256,162,-364
0,152572,341,686,-2595,-1491,-305,-38,256,162,-364
0,152578,341,687,-2590,-1485,-307,-49,256,162,-364
0,152583,341,687,-2590,-1485,-307,-49,256,162,-364
0,152589,341,687,-2590,-1485,-307,-49,256,162,-364
0,152594,341,687,-2590,-1485,-307,-49,256,162,-364
0,152600,339,687,-2592,-1485,-302,-51,246,166,-360
0,152605,339,687,-2592,-1485,-302,-51,246,166,-360
0,152611,339,687,-2592,-1485,-302,-51,246,166,-360
0,152616,339,687,-2592,-1485,-302,-51,246,166,-360
0,152623,341,685,-2591,-1486,-301,-45,246,166,-360
0,152628,341,685,-2591,-1486,-301,-45,246,166,-360
0,152633,341,685,-2591,-1486,-301,-45,246,166,-360
0,152638,338,684,-2595,-1492,-303,-47,246,166,-360
0,152644,338,684,-2595,-1492,-303,-47,246,166,-360
0,152649,338,684,-2595,-1492,-303,-47,246,166,-360
0,152655,338,684,-2595,-1492,-303,-47,246,166,-360
0,152660,339,683,-2594,-1491,-305,-48,246,166,-360
0,152667,339,683,-2594,-1491,-305,-48,246,166,-360
0,152673,339,683,-2594,-1491,-305,-48,246,166,-360
0,152678,342,682,-2594,-1486,-303,-47,246,166,-360
0,152683,342,682,-2594,-1486,-303,-47,246,166,-360
0,152689,342,682,-2594,-1486,-303,-47,246,166,-360
0,152694,342,682,-2594,-1486,-303,-47,246,166,-360
0,152700,340,687,-2592,-1491,-305,-46,246,166,-360
0,152707,340,687,-2592,-1491,-305,-46,246,166,-360
0,152712,340,687,-2592,-1491,-305,-46,246,166,-360
0,152717,341,685,-2599,-1488,-304,-44,246,166,-360
0,152723,341,685,-2599,-1488,-304,-44,246,166,-360
0,152728,341,685,-2599,-1488,-304,-44,246,166,-360
0,152734,341,685,-2599,-1488,-304,-44,246,166,-360
0,152738,341,687,-2590,-1492,-305,-43,256,168,-368
0,152744,341,687,-2590,-1492,-305,-43,256,168,-368
0,152751,341,687,-2590,-1492,-305,-43,256,168,-368
0,152756,341,687,-2590,-1492,-305,-43,256,168,-368
0,152762,343,686,-2593,-1493,-303,-52,256,168,-368
0,152768,343,686,-2593,-1493,-303,-52,256,168,-368
0,152773,343,686,-2593,-1493,-303,-52,256,168,-368
0,152779,342,684,-2593,-1488,-309,-50,256,168,-368
0,152784,342,684,-2593,-1488,-309,-50,256,168,-368
0,152790,342,684,-2593,-1488,-309,-50,256,168,-368
0,152796,342,684,-2593,-1488,-309,-50,256,168,-368
0,152801,339,687,-2595,-1485,-301,-38,256,168,-368
0,152806,339,687,-2595,-1485,-301,-38,256,168,-368
0,152812,339,687,-2595,-1485,-301,-38,256,168,-368
0,152817,342,689,-2592,-1490,-308,-43,256,168,-368
0,152822,342,689,-2592,-1490,-308,-43,256,168,-368
0,152828,342,689,-2592,-1490,-308,-43,256,168,-368
0,152834,342,689,-2592,-1490,-308,-43,256,168,-368
0,152840,341,686,-2591,-1498,-306,-44,256,168,-368
0,152845,341,686,-2591,-1498,-306,-44,256,168,-368
0,152851,341,686,-2591,-1498,-306,-44,256,168,-368
0,152856,341,686,-2591,-1498,-306,-44,256,168,-368
0,152862,342,684,-2589,-1492,-299,-53,257,163,-361
0,152868,342,684,-2589,-1492,-299,-53,257,163,-361
0,152873,342,684,-2589,-1492,-299,-53,257,163,-361
0,152880,341,683,-2593,-1486,-306,-48,257,163,-361
0,152886,341,683,-2593,-1486,-306,-48,257,163,-361
0,152891,341,683,-2593,-1486,-306,-48,257,163,-361
0,152897,341,683,-2593,-1486,-306,-48,257,163,-361
0,152902,338,681,-2595,-1488,-303,-44,257,163,-361
0,152907,338,681,-2595,-1488,-303,-44,257,163,-361
0,152912,338,681,-2595,-1488,-303,-44,257,163,-361
0,152918,342,685,-2596,-1484,-302,-48,257,163,-361
0,152923,342,685,-2596,-1484,-302,-48,257,163,-361
0,152929,342,685,-2596,-1484,-302,-48,257,163,-361
0,152934,342,685,-2596,-1484,-302,-48,257,163,-361
0,152940,344,686,-2594,-1493,-300,-49,257,163,-361
0,152945,344,686,-2594,-1493,-300,-49,257,163,-361
0,152951,344,686,-2594,-1493,-300,-49,257,163,-361
0,152956,344,686,-2594,-1493,-300,-49,257,163,-361
0,152962,341,685,-2601,-1482,-303,-45,257,163,-361
0,152967,341,685,-2601,-1482,-303,-45,257,163,-361
0,152972,341,685,-2601,-1482,-303,-45,257,163,-361
0,152978,339,685,-2597,-1487,-302,-42,261,155,-367
0,152983,339,685,-2597,-1487,-302,-42,261,155,-367
0,152989,339,685,-2597,-1487,-302,-42,261,155,-367
0,152994,339,685,-2597,-1487,-302,-42,261,155,-367
0,153000,340,688,-2595,-1484,-306,-45,261,155,-367
0,153006,340,688,-2595,-1484,-306,-45,261,155,-367
0,153011,340,688,-2595,-1484,-306,-45,261,155,-367
0,153017,343,684,-2595,-1491,-300,-40,261,155,-367
0,153022,343,684,-2595,-1491,-300,-40,261,155,-367
0,153028,343,684,-2595,-1491,-300,-40,261,155,-367
0,153034,343,684,-2595,-1491,-300,-40,261,155,-367
0,153039,339,683,-2592,-1488,-301,-41,261,155,-367
0,153046,339,683,-2592,-1488,-301,-41,261,155,-367
0,153052,339,683,-2592,-1488,-301,-41,261,155,-367
0,153057,342,682,-2590,-1491,-305,-48,261,155,-367
0,153062,342,682,-2590,-1491,-305,-48,261,155,-367
0,153068,342,682,-2590,-1491,-305,-48,261,155,-367
0,153073,342,682,-2590,-1491,-305,-48,261,155,-367
0,153078,341,686,-2594,-1485,-305,-46,261,155,-367
0,153084,341,686,-2594,-1485,-305,-46,261,155,-367
0,153090,341,686,-2594,-1485,-305,-46,261,155,-367
0,153096,341,686,-2594,-1485,-305,-46,261,155,-367
0,153102,341,684,-2590,-1486,-303,-46,257,159,-365
0,153107,341,684,-2590,-1486,-303,-46,257,159,-365
0,153112,341,684,-2590,-1486,-303,-46,257,159,-365
0,153118,339,686,-2593,-1490,-301,-42,257,159,-365
0,153123,339,686,-2593,-1490,-301,-42,257,159,-365
0,153129,339,686,-2593,-1490,-301,-42,257,159,-365
0,153135,339,686,-2593,-1490,-301,-42,257,159,-365
0,153140,342,685,-2592,-1495,-305,-47,257,159,-365
0,153145,342,685,-2592,-1495,-305,-47,257,159,-365
0,153151,342,685,-2592,-1495,-305,-47,257,159,-365
0,153156,342,685,-2592,-1495,-305,-47,257,159,-365
0,153161,341,681,-2591,-1487,-306,-50,257,159,-365
0,153166,341,681,-2591,-1487,-306,-50,257,159,-365
0,153172,341,681,-2591,-1487,-306,-50,257,159,-365
0,153179,341,681,-2591,-1487,-306,-50,257,159,-365
0,153184,341,681,-2591,-1487,-306,-50,257,159,-365
0,153189,341,681,-2591,-1487,-306,-50,257,159,-365
0,153195,341,681,-2591,-1487,-306,-50,257,159,-365
0,153200,341,684,-2590,-1486,-306,-45,257,159,-365
0,153205,341,684,-2590,-1486,-306,-45,257,159,-365
0,153210,341,684,-2590,-1486,-306,-45,257,159,-365
0,153216,341,684,-2590,-1486,-306,-45,257,159,-365
0,153222,341,686,-2592,-1489,-312,-45,257,159,-365
0,153228,341,686,-2592,-1489,-312,-45,257,159,-365
0,153233,341,686,-2592,-1489,-312,-45,257,159,-365
0,153238,345,686,-2591,-1490,-304,-37,251,169,-363
0,153243,345,686,-2591,-1490,-304,-37,251,169,-363
0,153249,345,686,-2591,-1490,-304,-37,251,169,-363
0,153254,345,686,-2591,-1490,-304,-37,251,169,-363
0,153260,341,684,-2591,-1488,-300,-42,251,169,-363
0,153266,341,684,-2591,-1488,-300,-42,251,169,-363
0,153272,341,684,-2591,-1488,-300,-42,251,169,-363
0,153277,340,686,-2594,-1486,-302,-44,251,169,-363
0,153283,340,686,-2594,-1486,-302,-44,251,169,-363
0,153288,340,686,-2594,-1486,-302,-44,251,169,-363
0,153293,340,686,-2594,-1486,-302,-44,251,169,-363
0,153299,341,683,-2595,-1489,-300,-41,251,169,-363
0,153305,341,683,-2595,-1489,-300,-41,251,169,-363
0,153311,341,683,-2595,-1489,-300,-41,251,169,-363
0,153316,341,683,-2595,-1489,-300,-41,251,169,-363
0,153321,342,681,-2589,-1488,-302,-39,251,169,-363
0,153327,342,681,-2589,-1488,-302,-39,251,169,-363
0,153333,342,681,-2589,-1488,-302,-39,251,169,-363
0,153338,340,681,-2601,-1487,-303,-45,251,169,-363
0,153344,340,681,-2601,-1487,-303,-45,251,169,-363
0,153349,340,681,-2601,-1487,-303,-45,251,169,-363
0,153355,340,681,-2601,-1487,-303,-45,251,169,-363
0,153360,339,685,-2589,-1486,-304,-42,264,154,-370
0,153365,339,685,-2589,-1486,-304,-42,264,154,-370
0,153370,339,685,-2589,-1486,-304,-42,264,154,-370
0,153376,339,685,-2589,-1486,-304,-42,264,154,-370
0,153381,341,682,-2599,-1491,-297,-52,264,154,-370
0,153388,341,682,-2599,-1491,-297,-52,264,154,-370
0,153393,341,682,-2599,-1491,-297,-52,264,154,-370
0,153399,341,681,-2596,-1493,-296,-53,264,154,-370
0,153404,341,681,-2596,-1493,-296,-53,264,154,-370
0,153410,341,681,-2596,-1493,-296,-53,264,154,-370
0,153415,341,681,-2596,-1493,-296,-53,264,154,-370
0,153420,339,684,-2597,-1487,-307,-52,264,154,-370
0,153426,339,684,-2597,-1487,-307,-52,264,154,-370
0,153433,339,684,-2597,-1487,-307,-52,264,154,-370
0,153438,342,684,-2598,-1492,-305,-41,264,154,-370
0,153443,342,684,-2598,-1492,-305,-41,264,154,-370
0,153449,342,684,-2598,-1492,-305,-41,264,154,-370
0,153454,342,684,-2598,-1492,-305,-41,264,154,-370
0,153460,338,684,-2595,-1489,-302,-44,264,154,-370
0,153465,338,684,-2595,-1489,-302,-44,264,154,-370
0,153472,338,684,-2595,-1489,-302,-44,264,154,-370
0,153478,340,683,-2593,-1489,-305,-48,250,168,-370
0,153483,340,683,-2593,-1489,-305,-48,250,168,-370
0,153489,340,683,-2593,-1489,-305,-48,250,168,-370
0,153495,340,683,-2593,-1489,-305,-48,250,168,-370
0,153500,341,684,-2591,-1490,-300,-45,250,168,-370
0,153505,341,684,-2591,-1490,-300,-45,250,168,-370
0,153511,341,684,-2591,-1490,-300,-45,250,168,-370
0,153517,341,684,-2591,-1490,-300,-45,250,168,-370
0,153522,341,683,-2594,-1488,-301,-44,250,168,-370
0,153527,341,683,-2594,-1488,-301,-44,250,168,-370
0,153533,341,683,-2594,-1488,-301,-44,250,168,-370
0,153538,343,687,-2597,-1479,-303,-53,250,168,-370
0,153544,343,687,-2597,-1479,-303,-53,250,168,-370
0,153549,343,687,-2597,-1479,-303,-53,250,168,-370
0,153554,343,687,-2597,-1479,-303,-53,250,168,-370
0,153561,340,684,-2596,-1487,-303,-51,250,168,-370
0,153566,340,684,-2596,-1487,-303,-51,250,168,-370
0,153572,340,684,-2596,-1487,-303,-51,250,168,-370
0,153577,340,685,-2596,-1491,-308,-49,250,168,-370
0,153583,340,685,-2596,-1491,-308,-49,250,168,-370
0,153588,340,685,-2596,-1491,-308,-49,250,168,-370
0,153594,340,685,-2596,-1491,-308,-49,250,168,-370
0,153600,342,685,-2597,-1489,-301,-50,256,170,-362
0,153606,342,685,-2597,-1489,-301,-50,256,170,-362
0,153612,342,685,-2597,-1489,-301,-50,256,170,-362
0,153617,342,685,-2597,-1489,-301,-50,256,170,-362
0,153623,340,683,-2593,-1494,-302,-59,256,170,-362
0,153628,340,683,-2593,-1494,-302,-59,256,170,-362
0,153634,340,683,-2593,-1494,-302,-59,256,170,-362
0,153639,341,686,-2595,-1487,-302,-49,256,170,-362
0,153646,341,686,-2595,-1487,-302,-49,256,170,-362
0,153651,341,686,-2595,-1487,-302,-49,256,170,-362
0,153656,341,686,-2595,-1487,-302,-49,256,170,-362
0,153662,340,681,-2597,-1484,-303,-50,256,170,-362
0,153667,340,681,-2597,-1484,-303,-50,256,170,-362
0,153673,340,681,-2597,-1484,-303,-50,256,170,-362
0,153678,339,684,-2595,-1489,-309,-49,256,170,-362
0,153684,339,684,-2595,-1489,-309,-49,256,170,-362
0,153690,339,684,-2595,-1489,-309,-49,256,170,-362
0,153696,339,684,-2595,-1489,-309,-49,256,170,-362
0,153701,342,685,-2588,-1482,-302,-48,256,170,-362
0,153706,342,685,-2588,-1482,-302,-48,256,170,-362
0,153712,342,685,-2588,-1482,-302,-48,256,170,-362
0,153717,340,686,-2595,-1482,-304,-48,253,165,-363
0,153723,340,686,-2595,-1482,-304,-48,253,165,-363
0,153729,340,686,-2595,-1482,-304,-48,253,165,-363
0,153734,340,686,-2595,-1482,-304,-48,253,165,-363
0,153739,340,684,-2589,-1484,-306,-48,253,165,-363
0,153745,340,684,-2589,-1484,-306,-48,253,165,-363
0,153750,340,684,-2589,-1484,-306,-48,253,165,-363
0,153756,340,684,-2589,-1484,-306,-48,253,165,-363
0,153761,344,681,-2590,-1490,-300,-45,253,165,-363
0,153767,344,681,-2590,-1490,-300,-45,253,165,-363
0,153773,344,681,-2590,-1490,-300,-45,253,165,-363
0,153779,342,685,-2590,-1491,-304,-51,253,165,-363
0,153784,342,685,-2590,-1491,-304,-51,253,165,-363
0,153789,342,685,-2590,-1491,-304,-51,253,165,-363
0,153794,342,685,-2590,-1491,-304,-51,253,165,-363
0,153800,343,685,-2593,-1488,-313,-48,253,165,-363
0,153805,343,685,-2593,-1488,-313,-48,253,165,-363
0,153811,343,685,-2593,-1488,-313,-48,253,165,-363
0,153817,343,685,-2593,-1488,-313,-48,253,165,-363
0,153822,339,682,-2600,-1485,-309,-47,253,165,-363
0,153828,339,682,-2600,-1485,-309,-47,253,165,-363
0,153833,339,682,-2600,-1485,-309,-47,253,165,-363
0,153839,339,683,-2595,-1483,-310,-54,253,165,-363
0,153844,339,683,-2595,-1483,-310,-54,253,165,-363
0,153850,339,683,-2595,-1483,-310,-54,253,165,-363
0,153856,339,683,-2595,-1483,-310,-54,253,165,-363
0,153862,339,684,-2593,-1488,-308,-57,259,163,-367
0,153867,339,684,-2593,-1488,-308,-57,259,163,-367
0,153872,339,684,-2593,-1488,-308,-57,259,163,-367
0,153877,341,681,-2592,-1483,-305,-50,259,163,-367
0,153883,341,681,-2592,-1483,-305,-50,259,163,-367
0,153888,341,681,-2592,-1483,-305,-50,259,163,-367
0,153893,341,681,-2592,-1483,-305,-50,259,163,-367
0,153899,338,684,-2594,-1481,-305,-49,259,163,-367
0,153905,338,684,-2594,-1481,-305,-49,259,163,-367
0,153910,338,684,-2594,-1481,-305,-49,259,163,-367
0,153915,338,684,-2594,-1481,-305,-49,259,163,-367
0,153921,339,683,-2599,-1484,-298,-44,259,163,-367
0,153926,339,683,-2599,-1484,-298,-44,259,163,-367
0,153931,339,683,-2599,-1484,-298,-44,259,163,-367
0,153936,339,683,-2599,-1484,-298,-44,259,163,-367
0,153943,339,683,-2592,-1478,-294,-48,259,163,-367
0,153948,339,683,-2592,-1478,-294,-48,259,163,-367
0,153954,339,683,-2592,-1478,-294,-48,259,163,-367
0,153959,345,686,-2595,-1484,-297,-41,259,163,-367
0,153965,345,686,-2595,-1484,-297,-41,259,163,-367
0,153970,345,686,-2595,-1484,-297,-41,259,163,-367
0,153975,345,686,-2595,-1484,-297,-41,259,163,-367
0,153980,344,685,-2597,-1486,-304,-43,255,177,-369
0,153987,344,685,-2597,-1486,-304,-43,255,177,-369
0,153992,344,685,-2597,-1486,-304,-43,255,177,-369
0,153998,339,687,-2593,-1486,-308,-49,255,177,-369
0,154003,339,687,-2593,-1486,-308,-49,255,177,-369
0,154008,339,687,-2593,-1486,-308,-49,255,177,-369
0,154014,339,687,-2593,-1486,-308,-49,255,177,-369
0,154019,339,688,-2597,-1489,-302,-53,255,177,-369
0,154025,339,688,-2597,-1489,-302,-53,255,177,-369
0,154031,339,688,-2597,-1489,-302,-53,255,177,-369
0,154036,339,688,-2597,-1489,-302,-53,255,177,-369
0,154042,340,685,-2593,-1478,-305,-42,255,177,-369
0,154047,340,685,-2593,-1478,-305,-42,255,177,-369
0,154053,340,685,-2593,-1478,-305,-42,255,177,-369
0,154058,341,685,-2591,-1485,-307,-42,255,177,-369
0,154063,341,685,-2591,-1485,-307,-42,255,177,-369
0,154070,341,685,-2591,-1485,-307,-42,255,177,-369
0,154075,341,685,-2591,-1485,-307,-42,255,177,-369
0,154080,339,686,-2596,-1491,-297,-50,255,177,-369
0,154085,339,686,-2596,-1491,-297,-50,255,177,-369
0,154090,339,686,-2596,-1491,-297,-50,255,177,-369
0,154096,339,686,-2596,-1491,-297,-50,255,177,-369
0,154101,342,687,-2594,-1483,-300,-50,261,161,-361
0,154107,342,687,-2594,-1483,-300,-50,261,161,-361
0,154113,342,687,-2594,-1483,-300,-50,261,161,-361
0,154119,343,684,-2591,-1487,-302,-49,261,161,-361
0,154124,343,684,-2591,-1487,-302,-49,261,161,-361
0,154129,343,684,-2591,-1487,-302,-49,261,161,-361
0,154134,343,684,-2591,-1487,-302,-49,261,161,-361
0,154140,340,685,-2593,-1492,-297,-50,261,161,-361
0,154145,340,685,-2593,-1492,-297,-50,261,161,-361
0,154152,340,685,-2593,-1492,-297,-50,261,161,-361
0,154160,342,682,-2592,-1490,-301,-45,261,161,-361
0,154168,342,682,-2592,-1490,-301,-45,261,161,-361
0,154174,342,682,-2592,-1490,-301,-45,261,161,-361
0,154180,341,684,-2592,-1483,-301,-53,261,161,-361
0,154185,341,684,-2592,-1483,-301,-53,261,161,-361
0,154190,341,684,-2592,-1483,-301,-53,261,161,-361
0,154196,341,684,-2592,-1483,-301,-53,261,161,-361
0,154202,341,685,-2589,-1486,-299,-54,261,161,-361
0,154207,341,685,-2589,-1486,-299,-54,261,161,-361
0,154213,341,685,-2589,-1486,-299,-54,261,161,-361
0,154218,340,685,-2594,-1488,-304,-48,259,167,-363
0,154224,340,685,-2594,-1488,-304,-48,259,167,-363
0,154229,340,685,-2594,-1488,-304,-48,259,167,-363
0,154234,340,685,-2594,-1488,-304,-48,259,167,-363
0,154241,342,686,-2591,-1491,-303,-46,259,167,-363
0,154246,342,686,-2591,-1491,-303,-46,259,167,-363
0,154251,342,686,-2591,-1491,-303,-46,259,167,-363
0,154256,342,686,-2591,-1491,-303,-46,259,167,-363
0,154262,339,684,-2586,-1495,-301,-47,259,167,-363
0,154267,339,684,-2586,-1495,-301,-47,259,167,-363
0,154273,339,684,-2586,-1495,-301,-47,259,167,-363
0,154278,340,681,-2597,-1495,-304,-53,259,167,-363
0,154284,340,681,-2597,-1495,-304,-53,259,167,-363
0,154290,340,681,-2597,-1495,-304,-53,259,167,-363
0,154295,340,681,-2597,-1495,-304,-53,259,167,-363
0,154301,341,686,-2596,-1495,-305,-44,259,167,-363
0,154306,341,686,-2596,-1495,-305,-44,259,167,-363
0,154312,341,686,-2596,-1495,-305,-44,259,167,-363
0,154317,338,682,-2593,-1489,-302,-42,259,167,-363
0,154323,338,682,-2593,-1489,-302,-42,259,167,-363
0,154329,338,682,-2593,-1489,-302,-42,259,167,-363
0,154334,338,682,-2593,-1489,-302,-42,259,167,-363
0,154339,338,682,-2593,-1489,-302,-42,259,159,-371
0,154345,338,682,-2593,-1489,-302,-42,259,159,-371
0,154350,338,682,-2593,-1489,-302,-42,259,159,-371
0,154355,338,682,-2593,-1489,-302,-42,259,159,-371
0,154361,342,687,-2589,-1490,-306,-46,259,159,-371
0,154366,342,687,-2589,-1490,-306,-46,259,159,-371
0,154373,342,687,-2589,-1490,-306,-46,259,159,-371
0,154378,340,685,-2595,-1482,-304,-42,259,159,-371
0,154383,340,685,-2595,-1482,-304,-42,259,159,-371
0,154388,340,685,-2595,-1482,-304,-42,259,159,-371
0,154393,340,685,-2595,-1482,-304,-42,259,159,-371
0,154399,343,682,-2593,-1477,-308,-39,259,159,-371
0,154404,343,682,-2593,-1477,-308,-39,259,159,-371
0,154409,343,682,-2593,-1477,-308,-39,259,159,-371
0,154415,343,682,-2593,-1477,-308,-39,259,159,-371
0,154421,339,685,-2593,-1479,-300,-41,259,159,-371
0,154427,339,685,-2593,-1479,-300,-41,259,159,-371
0,154432,339,685,-2593,-1479,-300,-41,259,159,-371
0,154437,339,687,-2592,-1487,-298,-43,259,159,-371
0,154442,339,687,-2592,-1487,-298,-43,259,159,-371
0,154448,339,687,-2592,-1487,-298,-43,259,159,-371
0,154454,339,687,-2592,-1487,-298,-43,259,159,-371
0,154460,339,682,-2594,-1496,-299,-45,259,159,-371
0,154466,339,682,-2594,-1496,-299,-45,259,159,-371
0,154471,339,682,-2594,-1496,-299,-45,259,159,-371
0,154477,339,682,-2594,-1496,-299,-45,259,159,-371
0,154482,337,688,-2594,-1484,-298,-50,253,169,-365
0,154488,337,688,-2594,-1484,-298,-50,253,169,-365
0,154493,337,688,-2594,-1484,-298,-50,253,169,-365
0,154500,340,683,-2596,-1492,-305,-46,253,169,-365
0,154506,340,683,-2596,-1492,-305,-46,253,169,-365
0,154511,340,683,-2596,-1492,-305,-46,253,169,-365
0,154517,340,683,-2596,-1492,-305,-46,253,169,-365
0,154522,340,684,-2592,-1489,-301,-51,253,169,-365
0,154528,340,684,-2592,-1489,-301,-51,253,169,-365
0,154533,340,684,-2592,-1489,-301,-51,253,169,-365
0,154540,342,683,-2590,-1490,-309,-43,253,169,-365
0,154545,342,683,-2590,-1490,-309,-43,253,169,-365
0,154550,342,683,-2590,-1490,-309,-43,253,169,-365
0,154556,342,683,-2590,-1490,-309,-43,253,169,-365
0,154561,341,683,-2593,-1486,-303,-44,253,169,-365
0,154567,341,683,-2593,-1486,-303,-44,253,169,-365
0,154572,341,683,-2593,-1486,-303,-44,253,169,-365
0,154577,343,686,-2593,-1489,-296,-51,253,169,-365
0,154584,343,686,-2593,-1489,-296,-51,253,169,-365
0,154589,343,686,-2593,-1489,-296,-51,253,169,-365
0,154595,343,686,-2593,-1489,-296,-51,253,169,-365
0,154600,341,686,-2591,-1484,-299,-47,265,157,-367
0,154605,341,686,-2591,-1484,-299,-47,265,157,-367
0,154611,341,686,-2591,-1484,-299,-47,265,157,-367
0,154616,341,686,-2591,-1484,-299,-47,265,157,-367
0,154622,342,685,-2596,-1491,-306,-49,265,157,-367
0,154628,342,685,-2596,-1491,-306,-49,265,157,-367
0,154634,342,685,-2596,-1491,-306,-49,265,157,-367
0,154639,342,686,-2596,-1490,-302,-53,265,157,-367
0,154645,342,686,-2596,-1490,-302,-53,265,157,-367
0,154650,342,686,-2596,-1490,-302,-53,265,157,-367
0,154656,342,686,-2596,-1490,-302,-53,265,157,-367
0,154661,340,683,-2593,-1493,-302,-54,265,157,-367
0,154667,340,683,-2593,-1493,-302,-54,265,157,-367
0,154672,340,683,-2593,-1493,-302,-54,265,157,-367
0,154678,342,685,-2591,-1502,-299,-47,265,157,-367
0,154683,342,685,-2591,-1502,-299,-47,265,157,-367
0,154688,342,685,-2591,-1502,-299,-47,265,157,-367
0,154694,342,685,-2591,-1502,-299,-47,265,157,-367
0,154698,342,686,-2593,-1490,-307,-49,265,157,-367
0,154704,342,686,-2593,-1490,-307,-49,265,157,-367
0,154710,342,686,-2593,-1490,-307,-49,265,157,-367
0,154716,342,686,-2593,-1490,-307,-49,265,157,-367
0,154721,345,683,-2592,-1487,-302,-54,255,169,-367
0,154727,345,683,-2592,-1487,-302,-54,255,169,-367
0,154732,345,683,-2592,-1487,-302,-54,255,169,-367
0,154738,341,684,-2594,-1491,-305,-50,255,169,-367
0,154743,341,684,-2594,-1491,-305,-50,255,169,-367
0,154748,341,684,-2594,-1491,-305,-50,255,169,-367
0,154754,341,684,-2594,-1491,-305,-50,255,169,-367
0,154761,343,681,-2591,-1488,-300,-50,255,169,-367
0,154766,343,681,-2591,-1488,-300,-50,255,169,-367
0,154772,343,681,-2591,-1488,-300,-50,255,169,-367
0,154777,343,681,-2591,-1488,-300,-50,255,169,-367
0,154782,341,683,-2591,-1492,-296,-50,255,169,-367
0,154788,341,683,-2591,-1492,-296,-50,255,169,-367
0,154795,341,683,-2591,-1492,-296,-50,255,169,-367
0,154800,336,687,-2597,-1490,-305,-49,255,169,-367
0,154805,336,687,-2597,-1490,-305,-49,255,169,-367
0,154811,336,687,-2597,-1490,-305,-49,255,169,-367
0,154817,336,687,-2597,-1490,-305,-49,255,169,-367
0,154822,342,684,-2594,-1485,-313,-50,255,169,-367
0,154827,342,684,-2594,-1485,-313,-50,255,169,-367
0,154832,342,684,-2594,-1485,-313,-50,255,169,-367
0,154839,340,681,-2593,-1482,-312,-49,250,164,-372
0,154845,340,681,-2593,-1482,-312,-49,250,164,-372
0,154850,340,681,-2593,-1482,-312,-49,250,164,-372
0,154855,340,681,-2593,-1482,-312,-49,250,164,-372
0,154861,341,683,-2595,-1491,-305,-50,250,164,-372
0,154866,341,683,-2595,-1491,-305,-50,250,164,-372
0,154872,341,683,-2595,-1491,-305,-50,250,164,-372
0,154878,342,683,-2590,-1487,-300,-42,250,164,-372
0,154884,342,683,-2590,-1487,-300,-42,250,164,-372
0,154890,342,683,-2590,-1487,-300,-42,250,164,-372
0,154895,342,683,-2590,-1487,-300,-42,250,164,-372
0,154900,341,685,-2592,-1489,-301,-51,250,164,-372
0,154905,341,685,-2592,-1489,-301,-51,250,164,-372
0,154911,341,685,-2592,-1489,-301,-51,250,164,-372
0,154916,341,685,-2592,-1489,-301,-51,250,164,-372
0,154923,337,684,-2599,-1489,-306,-51,250,164,-372
0,154928,337,684,-2599,-1489,-306,-51,250,164,-372
0,154933,337,684,-2599,-1489,-306,-51,250,164,-372
0,154938,342,686,-2595,-1493,-301,-46,250,164,-372
0,154943,342,686,-2595,-1493,-301,-46,250,164,-372
0,154948,342,686,-2595,-1493,-301,-46,250,164,-372
0,154953,342,686,-2595,-1493,-301,-46,250,164,-372
0,154958,340,687,-2595,-1495,-302,-53,257,165,-365
0,154964,340,687,-2595,-1495,-302,-53,257,165,-365
0,154970,340,687,-2595,-1495,-302,-53,257,165,-365
0,154975,340,687,-2595,-1495,-302,-53,257,165,-365
0,154981,342,684,-2589,-1493,-298,-51,257,165,-365
0,154986,342,684,-2589,-1493,-298,-51,257,165,-365
0,154991,342,684,-2589,-1493,-298,-51,257,165,-365
0,154996,342,684,-2589,-1493,-298,-51,257,165,-365
0,155001,343,685,-2595,-1486,-308,-45,257,165,-365
0,155006,343,685,-2595,-1486,-308,-45,257,165,-365
0,155013,343,685,-2595,-1486,-308,-45,257,165,-365
0,155018,341,683,-2594,-1491,-304,-43,257,165,-365
0,155023,341,683,-2594,-1491,-304,-43,257,165,-365
0,155028,341,683,-2594,-1491,-304,-43,257,165,-365
0,155034,341,683,-2594,-1491,-304,-43,257,165,-365
0,155040,340,685,-2599,-1494,-301,-45,257,165,-365
0,155045,340,685,-2599,-1494,-301,-45,257,165,-365
0,155052,340,685,-2599,-1494,-301,-45,257,165,-365
0,155057,340,685,-2599,-1494,-301,-45,257,165,-365
0,155063,340,685,-2599,-1494,-301,-45,257,165,-365
0,155068,340,685,-2599,-1494,-301,-45,257,165,-365
0,155074,340,685,-2599,-1494,-301,-45,257,165,-365
0,155079,342,682,-2600,-1486,-310,-53,257,165,-365
0,155085,342,682,-2600,-1486,-310,-53,257,165,-365
0,155091,342,682,-2600,-1486,-310,-53,257,165,-365
0,155097,342,682,-2600,-1486,-310,-53,257,165,-365
0,155103,342,685,-2590,-1489,-305,-46,253,159,-367
0,155108,342,685,-2590,-1489,-305,-46,253,159,-367
0,155113,342,685,-2590,-1489,-305,-46,253,159,-367
0,155119,341,681,-2593,-1480,-297,-49,253,159,-367
0,155124,341,681,-2593,-1480,-297,-49,253,159,-367
0,155129,341,681,-2593,-1480,-297,-49,253,159,-367
0,155136,341,681,-2593,-1480,-297,-49,253,159,-367
0,155141,340,684,-2593,-1480,-299,-50,253,159,-367
0,155147,340,684,-2593,-1480,-299,-50,253,159,-367
0,155153,340,684,-2593,-1480,-299,-50,253,159,-367
0,155159,340,682,-2593,-1485,-304,-51,253,159,-367
0,155164,340,682,-2593,-1485,-304,-51,253,159,-367
0,155169,340,682,-2593,-1485,-304,-51,253,159,-367
0,155175,340,682,-2593,-1485,-304,-51,253,159,-367
0,155181,339,684,-2593,-1492,-305,-41,253,159,-367
0,155186,339,684,-2593,-1492,-305,-41,253,159,-367
0,155192,339,684,-2593,-1492,-305,-41,253,159,-367
0,155197,339,684,-2593,-1492,-305,-41,253,159,-367
0,155202,340,685,-2592,-1493,-304,-44,253,159,-367
0,155208,340,685,-2592,-1493,-304,-44,253,159,-367
0,155212,340,685,-2592,-1493,-304,-44,253,159,-367
0,155218,341,684,-2589,-1493,-306,-40,261,163,-369
0,155224,341,684,-2589,-1493,-306,-40,261,163,-369
0,155230,341,684,-2589,-1493,-306,-40,261,163,-369
0,155235,341,684,-2589,-1493,-306,-40,261,163,-369
0,155241,342,686,-2593,-1484,-308,-43,261,163,-369
0,155246,342,686,-2593,-1484,-308,-43,261,163,-369
0,155252,342,686,-2593,-1484,-308,-43,261,163,-369
0,155257,342,686,-2593,-1484,-308,-43,261,163,-369
0,155262,342,686,-2594,-1483,-312,-44,261,163,-369
0,155268,342,686,-2594,-1483,-312,-44,261,163,-369
0,155273,342,686,-2594,-1483,-312,-44,261,163,-369
0,155278,343,685,-2593,-1492,-305,-53,261,163,-369
0,155284,343,685,-2593,-1492,-305,-53,261,163,-369
0,155289,343,685,-2593,-1492,-305,-53,261,163,-369
0,155295,343,685,-2593,-1492,-305,-53,261,163,-369
0,155300,341,682,-2596,-1498,-308,-48,261,163,-369
0,155307,341,682,-2596,-1498,-308,-48,261,163,-369
0,155312,341,682,-2596,-1498,-308,-48,261,163,-369
0,155318,341,682,-2596,-1498,-308,-48,261,163,-369
0,155323,340,687,-2592,-1493,-301,-49,261,163,-369
0,155329,340,687,-2592,-1493,-301,-49,261,163,-369
0,155334,340,687,-2592,-1493,-301,-49,261,163,-369
0,155339,340,682,-2589,-1489,-301,-51,254,166,-370
0,155345,340,682,-2589,-1489,-301,-51,254,166,-370
0,155351,340,682,-2589,-1489,-301,-51,254,166,-370
0,155356,340,682,-2589,-1489,-301,-51,254,166,-370
0,155362,343,684,-2593,-1487,-295,-50,254,166,-370
0,155367,343,684,-2593,-1487,-295,-50,254,166,-370
0,155372,343,684,-2593,-1487,-295,-50,254,166,-370
0,155377,343,684,-2593,-1487,-295,-50,254,166,-370
0,155383,344,681,-2594,-1491,-310,-50,254,166,-370
0,155388,344,681,-2594,-1491,-310,-50,254,166,-370
0,155395,344,681,-2594,-1491,-310,-50,254,166,-370
0,155400,342,682,-2595,-1492,-309,-51,254,166,-370
0,155405,342,682,-2595,-1492,-309,-51,254,166,-370
0,155410,342,682,-2595,-1492,-309,-51,254,166,-370
0,155416,342,682,-2595,-1492,-309,-51,254,166,-370
0,155421,340,683,-2594,-1489,-300,-47,254,166,-370
0,155427,340,683,-2594,-1489,-300,-47,254,166,-370
0,155432,340,683,-2594,-1489,-300,-47,254,166,-370
0,155438,339,684,-2592,-1487,-301,-52,254,166,-370
0,155444,339,684,-2592,-1487,-301,-52,254,166,-370
0,155449,339,684,-2592,-1487,-301,-52,254,166,-370
0,155454,339,684,-2592,-1487,-301,-52,254,166,-370
0,155460,343,686,-2593,-1483,-305,-51,256,162,-368
0,155466,343,686,-2593,-1483,-305,-51,256,162,-368
0,155471,343,686,-2593,-1483,-305,-51,256,162,-368
0,155478,343,686,-2593,-1483,-305,-51,256,162,-368
0,155483,341,683,-2594,-1486,-300,-47,256,162,-368
0,155488,341,683,-2594,-1486,-300,-47,256,162,-368
0,155493,341,683,-2594,-1486,-300,-47,256,162,-368
0,155499,341,683,-2594,-1486,-300,-47,256,162,-368
0,155504,341,683,-2594,-1486,-300,-47,256,162,-368
0,155509,341,683,-2594,-1486,-300,-47,256,162,-368
0,155515,341,683,-2594,-1486,-300,-47,256,162,-368
0,155520,341,684,-2595,-1483,-309,-50,256,162,-368
0,155526,341,684,-2595,-1483,-309,-50,256,162,-368
0,155531,341,684,-2595,-1483,-309,-50,256,162,-368
0,155536,341,684,-2595,-1483,-309,-50,256,162,-368
0,155542,340,684,-2597,-1488,-303,-51,256,162,-368
0,155547,340,684,-2597,-1488,-303,-51,256,162,-368
0,155552,340,684,-2597,-1488,-303,-51,256,162,-368
0,155558,339,685,-2594,-1492,-304,-52,256,162,-368
0,155564,339,685,-2594,-1492,-304,-52,256,162,-368
0,155569,339,685,-2594,-1492,-304,-52,256,162,-368
0,155574,339,685,-2594,-1492,-304,-52,256,162,-368
0,155580,339,685,-2594,-1492,-304,-52,254,166,-372
0,155585,339,685,-2594,-1492,-304,-52,254,166,-372
0,155590,339,685,-2594,-1492,-304,-52,254,166,-372
0,155596,339,685,-2594,-1492,-304,-52,254,166,-372
0,155601,337,685,-2593,-1496,-311,-48,254,166,-372
0,155607,337,685,-2593,-1496,-311,-48,254,166,-372
0,155612,337,685,-2593,-1496,-311,-48,254,166,-372
0,155618,342,680,-2593,-1492,-303,-48,254,166,-372
0,155624,342,680,-2593,-1492,-303,-48,254,166,-372
0,155629,342,680,-2593,-1492,-303,-48,254,166,-372
0,155634,342,680,-2593,-1492,-303,-48,254,166,-372
0,155639,339,682,-2590,-1485,-305,-44,254,166,-372
0,155645,339,682,-2590,-1485,-305,-44,254,166,-372
0,155651,339,682,-2590,-1485,-305,-44,254,166,-372
0,155656,339,682,-2590,-1485,-305,-44,254,166,-372
0,155662,341,684,-2592,-1486,-292,-46,254,166,-372
0,155668,341,684,-2592,-1486,-292,-46,254,166,-372
0,155673,341,684,-2592,-1486,-292,-46,254,166,-372
0,155679,342,680,-2594,-1480,-299,-53,254,166,-372
0,155685,342,680,-2594,-1480,-299,-53,254,166,-372
0,155691,342,680,-2594,-1480,-299,-53,254,166,-372
0,155696,342,680,-2594,-1480,-299,-53,254,166,-372
0,155701,340,682,-2595,-1490,-298,-55,254,166,-372
0,155707,340,682,-2595,-1490,-298,-55,254,166,-372
0,155712,340,682,-2595,-1490,-298,-55,254,166,-372
0,155717,340,682,-2595,-1490,-298,-55,254,166,-372
0,155723,339,683,-2587,-1485,-301,-47,262,172,-366
0,155728,339,683,-2587,-1485,-301,-47,262,172,-366
0,155735,339,683,-2587,-1485,-301,-47,262,172,-366
0,155740,340,684,-2597,-1491,-300,-52,262,172,-366
0,155746,340,684,-2597,-1491,-300,-52,262,172,-366
0,155751,340,684,-2597,-1491,-300,-52,262,172,-366
0,155756,340,684,-2597,-1491,-300,-52,262,172,-366
0,155762,340,683,-2594,-1485,-305,-50,262,172,-366
0,155767,340,683,-2594,-1485,-305,-50,262,172,-366
0,155773,340,683,-2594,-1485,-305,-50,262,172,-366
0,155779,341,681,-2595,-1488,-297,-54,262,172,-366
0,155784,341,681,-2595,-1488,-297,-54,262,172,-366
0,155789,341,681,-2595,-1488,-297,-54,262,172,-366
0,155794,341,681,-2595,-1488,-297,-54,262,172,-366
0,155800,339,682,-2593,-1484,-305,-52,262,172,-366
0,155805,339,682,-2593,-1484,-305,-52,262,172,-366
0,155811,339,682,-2593,-1484,-305,-52,262,172,-366
0,155816,339,682,-2593,-1484,-305,-52,262,172,-366
0,155823,339,683,-2598,-1488,-297,-47,262,172,-366
0,155828,339,683,-2598,-1488,-297,-47,262,172,-366
0,155833,339,683,-2598,-1488,-297,-47,262,172,-366
0,155838,340,687,-2590,-1483,-299,-43,259,159,-371
0,155844,340,687,-2590,-1483,-299,-43,259,159,-371
0,155849,340,687,-2590,-1483,-299,-43,259,159,-371
0,155855,340,687,-2590,-1483,-299,-43,259,159,-371
0,155860,342,684,-2591,-1487,-297,-47,259,159,-371
0,155866,342,684,-2591,-1487,-297,-47,259,159,-371
0,155871,342,684,-2591,-1487,-297,-47,259,159,-371
0,155877,342,684,-2591,-1487,-297,-47,259,159,-371
0,155883,343,684,-2596,-1486,-306,-54,259,159,-371
0,155888,343,684,-2596,-1486,-306,-54,259,159,-371
0,155894,343,684,-2596,-1486,-306,-54,259,159,-371
0,155899,347,682,-2591,-1481,-305,-56,259,159,-371
0,155906,347,682,-2591,-1481,-305,-56,259,159,-371
0,155911,347,682,-2591,-1481,-305,-56,259,159,-371
0,155917,347,682,-2591,-1481,-305,-56,259,159,-371
0,155923,347,682,-2591,-1481,-305,-56,259,159,-371
0,155928,347,682,-2591,-1481,-305,-56,259,159,-371
0,155934,347,682,-2591,-1481,-305,-56,259,159,-371
0,155939,342,683,-2593,-1491,-309,-49,259,159,-371
0,155945,342,683,-2593,-1491,-309,-49,259,159,-371
0,155950,342,683,-2593,-1491,-309,-49,259,159,-371
0,155956,342,683,-2593,-1491,-309,-49,259,159,-371
0,155962,341,685,-2593,-1489,-310,-47,261,169,-365
0,155967,341,685,-2593,-1489,-310,-47,261,169,-365
0,155972,341,685,-2593,-1489,-310,-47,261,169,-365
0,155978,342,684,-2591,-1493,-309,-44,261,169,-365
0,155983,342,684,-2591,-1493,-309,-44,261,169,-365
0,155988,342,684,-2591,-1493,-309,-44,261,169,-365
0,155994,342,684,-2591,-1493,-309,-44,261,169,-365
0,156000,340,685,-2593,-1491,-308,-49,261,169,-365
0,156005,340,685,-2593,-1491,-308,-49,261,169,-365
0,156011,340,685,-2593,-1491,-308,-49,261,169,-365
0,156016,340,685,-2593,-1491,-308,-49,261,169,-365
0,156022,339,687,-2595,-1484,-304,-56,261,169,-365
0,156027,339,687,-2595,-1484,-304,-56,261,169,-365
0,156033,339,687,-2595,-1484,-304,-56,261,169,-365
0,156039,341,685,-2591,-1481,-305,-49,261,169,-365
0,156045,341,685,-2591,-1481,-305,-49,261,169,-365
0,156051,341,685,-2591,-1481,-305,-49,261,169,-365
0,156056,341,685,-2591,-1481,-305,-49,261,169,-365
0,156061,340,685,-2594,-1488,-308,-46,261,169,-365
0,156067,340,685,-2594,-1488,-308,-46,261,169,-365
0,156072,340,685,-2594,-1488,-308,-46,261,169,-365
0,156078,340,685,-2594,-1488,-308,-46,261,169,-365
0,156085,341,684,-2598,-1488,-307,-38,257,167,-367
0,156090,341,684,-2598,-1488,-307,-38,257,167,-367
0,156096,341,684,-2598,-1488,-307,-38,257,167,-367
0,156101,339,682,-2594,-1485,-294,-47,257,167,-367
0,156107,339,682,-2594,-1485,-294,-47,257,167,-367
0,156112,339,682,-2594,-1485,-294,-47,257,167,-367
0,156119,340,685,-2596,-1482,-296,-48,257,167,-367
0,156124,340,685,-2596,-1482,-296,-48,257,167,-367
0,156129,340,685,-2596,-1482,-296,-48,257,167,-367
0,156135,340,685,-2596,-1482,-296,-48,257,167,-367
0,156140,342,684,-2592,-1488,-299,-45,257,167,-367
0,156146,342,684,-2592,-1488,-299,-45,257,167,-367
0,156151,342,684,-2592,-1488,-299,-45,257,167,-367
0,156156,342,684,-2592,-1488,-299,-45,257,167,-367
0,156163,341,682,-2597,-1489,-303,-45,257,167,-367
0,156168,341,682,-2597,-1489,-303,-45,257,167,-367
0,156174,341,682,-2597,-1489,-303,-45,257,167,-367
0,156180,339,684,-2602,-1493,-300,-40,257,167,-367
0,156185,339,684,-2602,-1493,-300,-40,257,167,-367
0,156191,339,684,-2602,-1493,-300,-40,257,167,-367
0,156196,339,684,-2602,-1493,-300,-40,257,167,-367
0,156203,340,685,-2595,-1488,-302,-48,257,167,-367
0,156207,340,685,-2595,-1488,-302,-48,257,167,-367
0,156213,340,685,-2595,-1488,-302,-48,257,167,-367
0,156219,344,684,-2593,-1480,-300,-47,251,165,-363
0,156224,344,684,-2593,-1480,-300,-47,251,165,-363
0,156229,344,684,-2593,-1480,-300,-47,251,165,-363
0,156235,344,684,-2593,-1480,-300,-47,251,165,-363
0,156240,341,685,-2589,-1486,-295,-52,251,165,-363
0,156246,341,685,-2589,-1486,-295,-52,251,165,-363
0,156252,341,685,-2589,-1486,-295,-52,251,165,-363
0,156258,341,685,-2589,-1486,-295,-52,251,165,-363
0,156263,339,686,-2592,-1487,-303,-48,251,165,-363
0,156269,339,686,-2592,-1487,-303,-48,251,165,-363
0,156274,339,686,-2592,-1487,-303,-48,251,165,-363
0,156280,340,688,-2597,-1494,-302,-46,251,165,-363
0,156285,340,688,-2597,-1494,-302,-46,251,165,-363
0,156291,340,688,-2597,-1494,-302,-46,251,165,-363
0,156297,340,688,-2597,-1494,-302,-46,251,165,-363
0,156302,341,683,-2593,-1494,-299,-53,251,165,-363
0,156307,341,683,-2593,-1494,-299,-53,251,165,-363
0,156313,341,683,-2593,-1494,-299,-53,251,165,-363
0,156318,341,680,-2597,-1489,-303,-51,251,165,-363
0,156324,341,680,-2597,-1489,-303,-51,251,165,-363
0,156329,341,680,-2597,-1489,-303,-51,251,165,-363
0,156335,341,680,-2597,-1489,-303,-51,251,165,-363
0,156341,339,683,-2599,-1488,-306,-43,256,168,-364
0,156346,339,683,-2599,-1488,-306,-43,256,168,-364
0,156351,339,683,-2599,-1488,-306,-43,256,168,-364
0,156356,339,683,-2599,-1488,-306,-43,256,168,-364
0,156362,339,685,-2595,-1485,-303,-45,256,168,-364
0,156367,339,685,-2595,-1485,-303,-45,256,168,-364
0,156372,339,685,-2595,-1485,-303,-45,256,168,-364
0,156378,342,686,-2596,-1490,-300,-47,256,168,-364
0,156384,342,686,-2596,-1490,-300,-47,256,168,-364
0,156390,342,686,-2596,-1490,-300,-47,256,168,-364
0,156395,342,686,-2596,-1490,-300,-47,256,168,-364
0,156401,339,685,-2599,-1493,-304,-42,256,168,-364
0,156406,339,685,-2599,-1493,-304,-42,256,168,-364
0,156412,339,685,-2599,-1493,-304,-42,256,168,-364
0,156418,339,685,-2599,-1493,-304,-42,256,168,-364
0,156424,342,684,-2597,-1496,-305,-41,256,168,-364
0,156429,342,684,-2597,-1496,-305,-41,256,168,-364
0,156435,342,684,-2597,-1496,-305,-41,256,168,-364
0,156440,345,683,-2598,-1495,-301,-43,256,168,-364
0,156445,345,683,-2598,-1495,-301,-43,256,168,-364
0,156450,345,683,-2598,-1495,-301,-43,256,168,-364
0,156456,345,683,-2598,-1495,-301,-43,256,168,-364
0,156462,341,684,-2592,-1486,-306,-43,253,167,-357
0,156468,341,684,-2592,-1486,-306,-43,253,167,-357
0,156473,341,684,-2592,-1486,-306,-43,253,167,-357
0,156478,342,685,-2591,-1492,-303,-44,253,167,-357
0,156484,342,685,-2591,-1492,-303,-44,253,167,-357
0,156489,342,685,-2591,-1492,-303,-44,253,167,-357
0,156495,342,685,-2591,-1492,-303,-44,253,167,-357
0,156500,344,686,-2592,-1487,-310,-46,253,167,-357
0,156507,344,686,-2592,-1487,-310,-46,253,167,-357
0,156513,344,686,-2592,-1487,-310,-46,253,167,-357
0,156518,344,686,-2592,-1487,-310,-46,253,167,-357
0,156523,340,685,-2595,-1490,-308,-45,253,167,-357
0,156529,340,685,-2595,-1490,-308,-45,253,167,-357
0,156535,340,685,-2595,-1490,-308,-45,253,167,-357
0,156540,338,683,-2595,-1486,-300,-53,253,167,-357
0,156547,338,683,-2595,-1486,-300,-53,253,167,-357
0,156552,338,683,-2595,-1486,-300,-53,253,167,-357
0,156557,338,683,-2595,-1486,-300,-53,253,167,-357
0,156563,338,685,-2598,-1481,-297,-50,253,167,-357
0,156568,338,685,-2598,-1481,-297,-50,253,167,-357
0,156574,338,685,-2598,-1481,-297,-50,253,167,-357
0,156579,340,683,-2591,-1489,-302,-45,253,165,-367
0,156584,340,683,-2591,-1489,-302,-45,253,165,-367
0,156591,340,683,-2591,-1489,-302,-45,253,165,-367
0,156596,340,683,-2591,-1489,-302,-45,253,165,-367
0,156601,340,681,-2592,-1486,-299,-42,253,165,-367
0,156607,340,681,-2592,-1486,-299,-42,253,165,-367
0,156612,340,681,-2592,-1486,-299,-42,253,165,-367
0,156617,340,681,-2592,-1486,-299,-42,253,165,-367
0,156623,340,683,-2597,-1493,-299,-48,253,165,-367
0,156628,340,683,-2597,-1493,-299,-48,253,165,-367
0,156634,340,683,-2597,-1493,-299,-48,253,165,-367
0,156640,342,684,-2596,-1494,-305,-44,253,165,-367
0,156645,342,684,-2596,-1494,-305,-44,253,165,-367
0,156651,342,684,-2596,-1494,-305,-44,253,165,-367
0,156656,342,684,-2596,-1494,-305,-44,253,165,-367
0,156662,342,683,-2599,-1486,-309,-42,253,165,-367
0,156667,342,683,-2599,-1486,-309,-42,253,165,-367
0,156673,342,683,-2599,-1486,-309,-42,253,165,-367
0,156679,341,685,-2591,-1482,-310,-52,253,165,-367
0,156684,341,685,-2591,-1482,-310,-52,253,165,-367
0,156690,341,685,-2591,-1482,-310,-52,253,165,-367
0,156696,341,685,-2591,-1482,-310,-52,253,165,-367
0,156701,341,686,-2595,-1483,-307,-54,255,165,-357
0,156706,341,686,-2595,-1483,-307,-54,255,165,-357
0,156711,341,686,-2595,-1483,-307,-54,255,165,-357
0,156717,341,686,-2595,-1483,-307,-54,255,165,-357
0,156723,341,689,-2597,-1493,-309,-47,255,165,-357
0,156728,341,689,-2597,-1493,-309,-47,255,165,-357
0,156733,341,689,-2597,-1493,-309,-47,255,165,-357
0,156738,341,683,-2595,-1490,-299,-46,255,165,-357
0,156744,341,683,-2595,-1490,-299,-46,255,165,-357
0,156749,341,683,-2595,-1490,-299,-46,255,165,-357
0,156755,341,683,-2595,-1490,-299,-46,255,165,-357
0,156761,342,684,-2592,-1493,-304,-47,255,165,-357
0,156766,342,684,-2592,-1493,-304,-47,255,165,-357
0,156772,342,684,-2592,-1493,-304,-47,255,165,-357
0,156777,342,684,-2592,-1493,-304,-47,255,165,-357
0,156782,339,684,-2595,-1489,-304,-51,255,165,-357
0,156787,339,684,-2595,-1489,-304,-51,255,165,-357
0,156793,339,684,-2595,-1489,-304,-51,255,165,-357
0,156798,340,685,-2592,-1491,-302,-42,255,165,-357
0,156804,340,685,-2592,-1491,-302,-42,255,165,-357
0,156810,340,685,-2592,-1491,-302,-42,255,165,-357
0,156816,340,685,-2592,-1491,-302,-42,255,165,-357
0,156821,341,682,-2594,-1481,-301,-47,255,165,-357
0,156826,341,682,-2594,-1481,-301,-47,255,165,-357
0,156831,341,682,-2594,-1481,-301,-47,255,165,-357
0,156836,341,682,-2594,-1481,-301,-47,255,165,-357
0,156843,338,683,-2595,-1488,-306,-50,251,163,-363
0,156848,338,683,-2595,-1488,-306,-50,251,163,-363
0,156854,338,683,-2595,-1488,-306,-50,251,163,-363
0,156859,341,682,-2598,-1489,-301,-52,251,163,-363
0,156865,341,682,-2598,-1489,-301,-52,251,163,-363
0,156870,341,682,-2598,-1489,-301,-52,251,163,-363
0,156876,341,682,-2598,-1489,-301,-52,251,163,-363
0,156881,339,686,-2592,-1486,-299,-52,251,163,-363
0,156887,339,686,-2592,-1486,-299,-52,251,163,-363
0,156892,339,686,-2592,-1486,-299,-52,251,163,-363
0,156898,339,686,-2592,-1486,-299,-52,251,163,-363
0,156903,340,682,-2600,-1485,-302,-46,251,163,-363
0,156909,340,682,-2600,-1485,-302,-46,251,163,-363
0,156914,340,682,-2600,-1485,-302,-46,251,163,-363
0,156919,338,684,-2589,-1495,-310,-48,251,163,-363
0,156925,338,684,-2589,-1495,-310,-48,251,163,-363
0,156931,338,684,-2589,-1495,-310,-48,251,163,-363
0,156936,338,684,-2589,-1495,-310,-48,251,163,-363
0,156942,339,684,-2594,-1499,-302,-49,251,163,-363
0,156947,339,684,-2594,-1499,-302,-49,251,163,-363
0,156953,339,684,-2594,-1499,-302,-49,251,163,-363
0,156958,339,684,-2590,-1497,-300,-52,251,163,-363
0,156963,339,684,-2590,-1497,-300,-52,259,167,-367
0,156969,339,684,-2590,-1497,-300,-52,259,167,-367
0,156975,339,684,-2590,-1497,-300,-52,259,167,-367
0,156980,340,686,-2595,-1486,-298,-48,259,167,-367
0,156986,340,686,-2595,-1486,-298,-48,259,167,-367
0,156992,340,686,-2595,-1486,-298,-48,259,167,-367
0,156997,340,686,-2595,-1486,-298,-48,259,167,-367
0,157002,342,688,-2593,-1485,-302,-52,259,167,-367
0,157007,342,688,-2593,-1485,-302,-52,259,167,-367
0,157014,342,688,-2593,-1485,-302,-52,259,167,-367
0,157019,341,680,-2593,-1492,-304,-48,259,167,-367
0,157025,341,680,-2593,-1492,-304,-48,259,167,-367
0,157030,341,680,-2593,-1492,-304,-48,259,167,-367
0,157036,341,680,-2593,-1492,-304,-48,259,167,-367
0,157041,339,684,-2592,-1493,-306,-52,259,167,-367
0,157047,339,684,-2592,-1493,-306,-52,259,167,-367
0,157052,339,684,-2592,-1493,-306,-52,259,167,-367
0,157059,339,684,-2592,-1493,-306,-52,259,167,-367
0,157064,339,685,-2594,-1497,-307,-43,259,167,-367
0,157070,339,685,-2594,-1497,-307,-43,259,167,-367
0,157075,339,685,-2594,-1497,-307,-43,259,167,-367
0,157080,341,685,-2592,-1497,-299,-39,262,166,-368
0,157085,341,685,-2592,-1497,-299,-39,262,166,-368
0,157091,341,685,-2592,-1497,-299,-39,262,166,-368
0,157097,341,685,-2592,-1497,-299,-39,262,166,-368
0,157103,340,684,-2596,-1492,-296,-50,262,166,-368
0,157109,340,684,-2596,-1492,-296,-50,262,166,-368
0,157115,340,684,-2596,-1492,-296,-50,262,166,-368
0,157120,340,683,-2593,-1487,-305,-48,262,166,-368
0,157125,340,683,-2593,-1487,-305,-48,262,166,-368
0,157130,340,683,-2593,-1487,-305,-48,262,166,-368
0,157135,340,683,-2593,-1487,-305,-48,262,166,-368
0,157142,340,687,-2591,-1492,-307,-50,262,166,-368
0,157147,340,687,-2591,-1492,-307,-50,262,166,-368
0,157153,340,687,-2591,-1492,-307,-50,262,166,-368
0,157159,340,686,-2597,-1493,-300,-54,262,166,-368
0,157164,340,686,-2597,-1493,-300,-54,262,166,-368
0,157169,340,686,-2597,-1493,-300,-54,262,166,-368
0,157174,340,686,-2597,-1493,-300,-54,262,166,-368
0,157180,342,683,-2596,-1495,-302,-53,262,166,-368
0,157186,342,683,-2596,-1495,-302,-53,262,166,-368
0,157192,342,683,-2596,-1495,-302,-53,262,166,-368
0,157197,342,683,-2596,-1495,-302,-53,262,166,-368
0,157203,341,683,-2595,-1486,-302,-53,253,169,-365
0,157208,341,683,-2595,-1486,-302,-53,253,169,-365
0,157213,341,683,-2595,-1486,-302,-53,253,169,-365
0,157219,342,685,-2596,-1482,-302,-48,253,169,-365
0,157224,342,685,-2596,-1482,-302,-48,253,169,-365
0,157230,342,685,-2596,-1482,-302,-48,253,169,-365
0,157235,342,685,-2596,-1482,-302,-48,253,169,-365
0,157241,340,685,-2593,-1493,-306,-45,253,169,-365
0,157246,340,685,-2593,-1493,-306,-45,253,169,-365
0,157251,340,685,-2593,-1493,-306,-45,253,169,-365
0,157257,340,685,-2593,-1493,-306,-45,253,169,-365
0,157262,340,686,-2593,-1490,-303,-44,253,169,-365
0,157268,340,686,-2593,-1490,-303,-44,253,169,-365
0,157274,340,686,-2593,-1490,-303,-44,253,169,-365
0,157279,340,686,-2593,-1490,-303,-44,253,169,-365
0,157284,340,686,-2593,-1490,-303,-44,253,169,-365
0,157290,340,686,-2593,-1490,-303,-44,253,169,-365
0,157295,340,686,-2593,-1490,-303,-44,253,169,-365
0,157301,340,687,-2596,-1489,-297,-43,253,169,-365
0,157306,340,687,-2596,-1489,-297,-43,253,169,-365
0,157312,340,687,-2596,-1489,-297,-43,253,169,-365
0,157318,340,687,-2596,-1489,-297,-43,253,169,-365
0,157324,340,683,-2594,-1477,-301,-39,255,167,-367
0,157330,340,683,-2594,-1477,-301,-39,255,167,-367
0,157335,340,683,-2594,-1477,-301,-39,255,167,-367
0,157340,342,685,-2595,-1482,-301,-46,255,167,-367
0,157346,342,685,-2595,-1482,-301,-46,255,167,-367
0,157351,342,685,-2595,-1482,-301,-46,255,167,-367
0,157357,342,685,-2595,-1482,-301,-46,255,167,-367
0,157362,340,685,-2595,-1490,-303,-47,255,167,-367
0,157368,340,685,-2595,-1490,-303,-47,255,167,-367
0,157374,340,685,-2595,-1490,-303,-47,255,167,-367
0,157379,341,684,-2589,-1489,-302,-46,255,167,-367
0,157384,341,684,-2589,-1489,-302,-46,255,167,-367
0,157390,341,684,-2589,-1489,-302,-46,255,167,-367
0,157395,341,684,-2589,-1489,-302,-46,255,167,-367
0,157402,341,683,-2594,-1484,-304,-48,255,167,-367
0,157408,341,683,-2594,-1484,-304,-48,255,167,-367
0,157414,341,683,-2594,-1484,-304,-48,255,167,-367
0,157419,341,686,-2596,-1482,-294,-52,255,167,-367
0,157425,341,686,-2596,-1482,-294,-52,255,167,-367
0,157430,341,686,-2596,-1482,-294,-52,255,167,-367
0,157436,341,686,-2596,-1482,-294,-52,255,167,-367
0,157442,340,686,-2596,-1483,-303,-46,255,167,-367
0,157447,340,686,-2596,-1483,-303,-46,255,167,-367
0,157453,340,686,-2596,-1483,-303,-46,255,167,-367
0,157458,340,686,-2596,-1483,-303,-46,255,167,-367
0,157464,342,687,-2586,-1487,-308,-44,251,161,-363
0,157469,342,687,-2586,-1487,-308,-44,251,161,-363
0,157474,342,687,-2586,-1487,-308,-44,251,161,-363
0,157479,341,688,-2592,-1490,-313,-52,251,161,-363
0,157486,341,688,-2592,-1490,-313,-52,251,161,-363
0,157491,341,688,-2592,-1490,-313,-52,251,161,-363
0,157496,341,688,-2592,-1490,-313,-52,251,161,-363
0,157502,343,686,-2592,-1484,-302,-46,251,161,-363
0,157507,343,686,-2592,-1484,-302,-46,251,161,-363
0,157513,343,686,-2592,-1484,-302,-46,251,161,-363
0,157518,340,686,-2599,-1487,-305,-52,251,161,-363
0,157523,340,686,-2599,-1487,-305,-52,251,161,-363
0,157530,340,686,-2599,-1487,-305,-52,251,161,-363
0,157535,340,686,-2599,-1487,-305,-52,251,161,-363
0,157540,341,686,-2599,-1492,-299,-49,251,161,-363
0,157546,341,686,-2599,-1492,-299,-49,251,161,-363
0,157552,341,686,-2599,-1492,-299,-49,251,161,-363
0,157557,341,686,-2599,-1492,-299,-49,251,161,-363
0,157563,341,685,-2590,-1488,-302,-44,251,161,-363
0,157569,341,685,-2590,-1488,-302,-44,251,161,-363
0,157575,341,685,-2590,-1488,-302,-44,251,161,-363
0,157580,342,687,-2591,-1491,-306,-48,257,163,-363
0,157586,342,687,-2591,-1491,-306,-48,257,163,-363
0,157591,342,687,-2591,-1491,-306,-48,257,163,-363
0,157596,342,687,-2591,-1491,-306,-48,257,163,-363
0,157602,341,684,-2593,-1495,-303,-45,257,163,-363
0,157607,341,684,-2593,-1495,-303,-45,257,163,-363
0,157613,341,684,-2593,-1495,-303,-45,257,163,-363
0,157618,341,684,-2593,-1495,-303,-45,257,163,-363
0,157624,341,683,-2598,-1491,-302,-48,257,163,-363
0,157629,341,683,-2598,-1491,-302,-48,257,163,-363
0,157635,341,683,-2598,-1491,-302,-48,257,163,-363
0,157640,341,683,-2598,-1491,-302,-48,257,163,-363
0,157646,341,683,-2598,-1491,-302,-48,257,163,-363
0,157651,341,683,-2598,-1491,-302,-48,257,163,-363
0,157657,341,683,-2598,-1491,-302,-48,257,163,-363
0,157663,341,683,-2594,-1489,-305,-51,257,163,-363
0,157668,341,683,-2594,-1489,-305,-51,257,163,-363
0,157673,341,683,-2594,-1489,-305,-51,257,163,-363
0,157679,338,687,-2592,-1487,-300,-39,257,163,-363
0,157684,338,687,-2592,-1487,-300,-39,257,163,-363
0,157690,338,687,-2592,-1487,-300,-39,257,163,-363
0,157696,338,687,-2592,-1487,-300,-39,257,163,-363
0,157701,340,684,-2589,-1489,-304,-42,262,170,-364
0,157707,340,684,-2589,-1489,-304,-42,262,170,-364
0,157712,340,684,-2589,-1489,-304,-42,262,170,-364
0,157718,340,684,-2589,-1489,-304,-42,262,170,-364
0,157723,338,682,-2596,-1494,-303,-44,262,170,-364
0,157729,338,682,-2596,-1494,-303,-44,262,170,-364
0,157734,338,682,-2596,-1494,-303,-44,262,170,-364
0,157740,341,687,-2595,-1484,-305,-51,262,170,-364
0,157745,341,687,-2595,-1484,-305,-51,262,170,-364
0,157750,341,687,-2595,-1484,-305,-51,262,170,-364
0,157756,341,687,-2595,-1484,-305,-51,262,170,-364
0,157762,340,686,-2595,-1485,-305,-44,262,170,-364
0,157767,340,686,-2595,-1485,-305,-44,262,170,-364
0,157772,340,686,-2595,-1485,-305,-44,262,170,-364
0,157778,338,684,-2594,-1483,-296,-40,262,170,-364
0,157784,338,684,-2594,-1483,-296,-40,262,170,-364
0,157790,338,684,-2594,-1483,-296,-40,262,170,-364
0,157795,338,684,-2594,-1483,-296,-40,262,170,-364
0,157801,339,686,-2594,-1487,-305,-45,262,170,-364
0,157807,339,686,-2594,-1487,-305,-45,262,170,-364
0,157812,339,686,-2594,-1487,-305,-45,262,170,-364
0,157817,339,686,-2594,-1487,-305,-45,262,170,-364
0,157822,342,686,-2595,-1487,-304,-42,258,168,-366
0,157829,342,686,-2595,-1487,-304,-42,258,168,-366
0,157834,342,686,-2595,-1487,-304,-42,258,168,-366
0,157840,341,684,-2591,-1486,-300,-44,258,168,-366
0,157846,341,684,-2591,-1486,-300,-44,258,168,-366
0,157851,341,684,-2591,-1486,-300,-44,258,168,-366
0,157857,341,684,-2591,-1486,-300,-44,258,168,-366
0,157862,344,684,-2594,-1487,-302,-41,258,168,-366
0,157869,344,684,-2594,-1487,-302,-41,258,168,-366
0,157874,344,684,-2594,-1487,-302,-41,258,168,-366
0,157880,342,682,-2596,-1490,-305,-53,258,168,-366
0,157885,342,682,-2596,-1490,-305,-53,258,168,-366
0,157890,342,682,-2596,-1490,-305,-53,258,168,-366
0,157896,342,682,-2596,-1490,-305,-53,258,168,-366
0,157901,339,684,-2596,-1490,-302,-43,258,168,-366
0,157906,339,684,-2596,-1490,-302,-43,258,168,-366
0,157913,339,684,-2596,-1490,-302,-43,258,168,-366
0,157917,339,684,-2596,-1490,-302,-43,258,168,-366
0,157923,341,686,-2593,-1480,-307,-49,258,168,-366
0,157929,341,686,-2593,-1480,-307,-49,258,168,-366
0,157934,341,686,-2593,-1480,-307,-49,258,168,-366
0,157939,343,686,-2594,-1485,-304,-44,257,159,-366
0,157944,343,686,-2594,-1485,-304,-44,257,159,-363
0,157950,343,686,-2594,-1485,-304,-44,257,159,-363
0,157957,343,686,-2594,-1485,-304,-44,257,159,-363
0,157962,341,685,-2593,-1482,-302,-45,257,159,-363
0,157967,341,685,-2593,-1482,-302,-45,257,159,-363
0,157973,341,685,-2593,-1482,-302,-45,257,159,-363
0,157978,341,685,-2593,-1482,-302,-45,257,159,-363
0,157984,340,684,-2596,-1482,-305,-48,257,159,-363
0,157989,340,684,-2596,-1482,-305,-48,257,159,-363
0,157996,340,684,-2596,-1482,-305,-48,257,159,-363
0,158001,338,685,-2594,-1487,-308,-41,257,159,-363
0,158007,338,685,-2594,-1487,-308,-41,257,159,-363
0,158012,338,685,-2594,-1487,-308,-41,257,159,-363
0,158018,338,685,-2594,-1487,-308,-41,257,159,-363
0,158023,341,683,-2594,-1486,-307,-47,257,159,-363
0,158028,341,683,-2594,-1486,-307,-47,257,159,-363
0,158033,341,683,-2594,-1486,-307,-47,257,159,-363
0,158040,340,682,-2598,-1487,-307,-51,257,159,-363
0,158045,340,682,-2598,-1487,-307,-51,257,159,-363
0,158051,340,682,-2598,-1487,-307,-51,257,159,-363
0,158056,340,682,-2598,-1487,-307,-51,257,159,-363
0,158062,342,682,-2597,-1486,-299,-43,257,159,-363
0,158068,342,682,-2597,-1486,-299,-43,257,159,-363
0,158073,342,682,-2597,-1486,-299,-43,257,159,-363
0,158078,343,686,-2593,-1488,-306,-51,257,159,-363
0,158084,343,686,-2593,-1488,-306,-51,249,171,-363
0,158090,343,686,-2593,-1488,-306,-51,249,171,-363
0,158095,343,686,-2593,-1488,-306,-51,249,171,-363
0,158101,340,682,-2592,-1496,-307,-42,249,171,-363
0,158106,340,682,-2592,-1496,-307,-42,249,171,-363
0,158111,340,682,-2592,-1496,-307,-42,249,171,-363
0,158117,340,682,-2592,-1496,-307,-42,249,171,-363
0,158123,341,683,-2592,-1489,-302,-52,249,171,-363
0,158128,341,683,-2592,-1489,-302,-52,249,171,-363
0,158134,341,683,-2592,-1489,-302,-52,249,171,-363
0,158139,341,684,-2594,-1485,-302,-46,249,171,-363
0,158145,341,684,-2594,-1485,-302,-46,249,171,-363
0,158150,341,684,-2594,-1485,-302,-46,249,171,-363
0,158155,341,684,-2594,-1485,-302,-46,249,171,-363
0,158161,339,684,-2596,-1483,-299,-47,249,171,-363
0,158167,339,684,-2596,-1483,-299,-47,249,171,-363
0,158172,339,684,-2596,-1483,-299,-47,249,171,-363
0,158178,339,684,-2596,-1483,-299,-47,249,171,-363
0,158183,342,680,-2594,-1494,-306,-45,249,171,-363
0,158188,342,680,-2594,-1494,-306,-45,249,171,-363
0,158194,342,680,-2594,-1494,-306,-45,249,171,-363
0,158199,339,685,-2594,-1488,-299,-44,254,164,-366
0,158205,339,685,-2594,-1488,-299,-44,254,164,-366
0,158211,339,685,-2594,-1488,-299,-44,254,164,-366
0,158217,339,685,-2594,-1488,-299,-44,254,164,-366
0,158223,337,688,-2591,-1493,-304,-45,254,164,-366
0,158228,337,688,-2591,-1493,-304,-45,254,164,-366
0,158233,337,688,-2591,-1493,-304,-45,254,164,-366
0,158239,343,685,-2595,-1495,-301,-47,254,164,-366
0,158245,343,685,-2595,-1495,-301,-47,254,164,-366
0,158251,343,685,-2595,-1495,-301,-47,254,164,-366
0,158257,343,685,-2595,-1495,-301,-47,254,164,-366
0,158262,341,685,-2593,-1495,-301,-47,254,164,-366
0,158268,341,685,-2593,-1495,-301,-47,254,164,-366
0,158273,341,685,-2593,-1495,-301,-47,254,164,-366
0,158278,341,685,-2593,-1495,-301,-47,254,164,-366
0,158283,337,686,-2592,-1495,-307,-51,254,164,-366
0,158289,337,686,-2592,-1495,-307,-51,254,164,-366
0,158295,337,686,-2592,-1495,-307,-51,254,164,-366
0,158301,340,682,-2592,-1486,-305,-45,254,164,-366
0,158306,340,682,-2592,-1486,-305,-45,254,164,-366
0,158312,340,682,-2592,-1486,-305,-45,254,164,-366
0,158317,340,682,-2592,-1486,-305,-45,254,164,-366
0,158323,338,684,-2591,-1484,-299,-48,255,165,-367
0,158328,338,684,-2591,-1484,-299,-48,255,165,-367
0,158333,338,684,-2591,-1484,-299,-48,255,165,-367
0,158340,339,683,-2596,-1490,-305,-48,255,165,-367
0,158345,339,683,-2596,-1490,-305,-48,255,165,-367
0,158350,339,683,-2596,-1490,-305,-48,255,165,-367
0,158356,339,683,-2596,-1490,-305,-48,255,165,-367
0,158362,340,681,-2592,-1482,-303,-45,255,165,-367
0,158367,340,681,-2592,-1482,-303,-45,255,165,-367
0,158373,340,681,-2592,-1482,-303,-45,255,165,-367
0,158379,340,681,-2592,-1482,-303,-45,255,165,-367
0,158384,341,682,-2597,-1486,-302,-46,255,165,-367
0,158389,341,682,-2597,-1486,-302,-46,255,165,-367
0,158394,341,682,-2597,-1486,-302,-46,255,165,-367
0,158400,344,682,-2598,-1490,-298,-48,255,165,-367
0,158405,344,682,-2598,-1490,-298,-48,255,165,-367
0,158411,344,682,-2598,-1490,-298,-48,255,165,-367
0,158416,344,682,-2598,-1490,-298,-48,255,165,-367
0,158422,339,682,-2598,-1485,-296,-45,255,165,-367
0,158427,339,682,-2598,-1485,-296,-45,255,165,-367
0,158432,339,682,-2598,-1485,-296,-45,255,165,-367
0,158437,339,682,-2598,-1485,-296,-45,255,165,-367
0,158443,343,685,-2597,-1491,-304,-46,260,158,-370
0,158448,343,685,-2597,-1491,-304,-46,260,158,-370
0,158453,343,685,-2597,-1491,-304,-46,260,158,-370
0,158459,344,685,-2593,-1496,-306,-49,260,158,-370
0,158465,344,685,-2593,-1496,-306,-49,260,158,-370
0,158471,344,685,-2593,-1496,-306,-49,260,158,-370
0,158476,344,685,-2593,-1496,-306,-49,260,158,-370
0,158481,341,683,-2594,-1496,-298,-50,260,158,-370
0,158487,341,683,-2594,-1496,-298,-50,260,158,-370
0,158492,341,683,-2594,-1496,-298,-50,260,158,-370
0,158498,341,683,-2594,-1496,-298,-50,260,158,-370
0,158503,340,684,-2594,-1486,-300,-44,260,158,-370
0,158510,340,684,-2594,-1486,-300,-44,260,158,-370
0,158514,340,684,-2594,-1486,-300,-44,260,158,-370
0,158520,343,684,-2590,-1484,-310,-45,260,158,-370
0,158526,343,684,-2590,-1484,-310,-45,260,158,-370
0,158531,343,684,-2590,-1484,-310,-45,260,158,-370
0,158536,343,684,-2590,-1484,-310,-45,260,158,-370
0,158542,343,684,-2597,-1481,-303,-45,260,158,-370
0,158547,343,684,-2597,-1481,-303,-45,260,158,-370
0,158554,343,684,-2597,-1481,-303,-45,260,158,-370
0,158560,343,684,-2600,-1492,-305,-50,255,171,-367
0,158565,343,684,-2600,-1492,-305,-50,255,171,-367
0,158570,343,684,-2600,-1492,-305,-50,255,171,-367
0,158575,343,684,-2600,-1492,-305,-50,255,171,-367
0,158581,339,683,-2593,-1493,-304,-37,255,171,-367
0,158586,339,683,-2593,-1493,-304,-37,255,171,-367
0,158593,339,683,-2593,-1493,-304,-37,255,171,-367
0,158598,339,683,-2593,-1493,-304,-37,255,171,-367
0,158604,341,684,-2591,-1487,-302,-41,255,171,-367
0,158609,341,684,-2591,-1487,-302,-41,255,171,-367
0,158614,341,684,-2591,-1487,-302,-41,255,171,-367
0,158620,342,684,-2595,-1484,-302,-41,255,171,-367
0,158626,342,684,-2595,-1484,-302,-41,255,171,-367
0,158631,342,684,-2595,-1484,-302,-41,255,171,-367
0,158638,342,684,-2595,-1484,-302,-41,255,171,-367
0,158643,340,684,-2597,-1487,-300,-44,255,171,-367
0,158648,340,684,-2597,-1487,-300,-44,255,171,-367
0,158654,340,684,-2597,-1487,-300,-44,255,171,-367
0,158659,340,685,-2592,-1493,-303,-48,255,171,-367
0,158664,340,685,-2592,-1493,-303,-48,255,171,-367
0,158670,340,685,-2592,-1493,-303,-48,255,171,-367
0,158675,340,685,-2592,-1493,-303,-48,255,171,-367
0,158682,340,684,-2589,-1494,-306,-46,255,171,-367
0,158687,340,684,-2589,-1494,-306,-46,255,171,-367
0,158693,340,684,-2589,-1494,-306,-46,255,171,-367
0,158698,340,684,-2589,-1494,-306,-46,255,171,-367
0,158704,339,682,-2592,-1486,-299,-45,261,159,-371
0,158709,339,682,-2592,-1486,-299,-45,261,159,-371
0,158714,339,682,-2592,-1486,-299,-45,261,159,-371
0,158721,338,681,-2589,-1497,-302,-43,261,159,-371
0,158726,338,681,-2589,-1497,-302,-43,261,159,-371
0,158731,338,681,-2589,-1497,-302,-43,261,159,-371
0,158736,338,681,-2589,-1497,-302,-43,261,159,-371
0,158742,338,684,-2594,-1492,-307,-43,261,159,-371
0,158747,338,684,-2594,-1492,-307,-43,261,159,-371
0,158752,338,684,-2594,-1492,-307,-43,261,159,-371
0,158757,338,684,-2594,-1492,-307,-43,261,159,-371
0,158764,341,681,-2591,-1485,-307,-48,261,159,-371
0,158769,341,681,-2591,-1485,-307,-48,261,159,-371
0,158775,341,681,-2591,-1485,-307,-48,261,159,-371
0,158780,341,683,-2594,-1493,-297,-47,261,159,-371
0,158785,341,683,-2594,-1493,-297,-47,261,159,-371
0,158791,341,683,-2594,-1493,-297,-47,261,159,-371
0,158797,341,683,-2594,-1493,-297,-47,261,159,-371
0,158802,337,685,-2593,-1492,-307,-46,261,159,-371
0,158809,337,685,-2593,-1492,-307,-46,261,159,-371
0,158814,337,685,-2593,-1492,-307,-46,261,159,-371
0,158819,341,684,-2595,-1497,-312,-43,261,159,-371
0,158825,341,684,-2595,-1497,-312,-43,262,172,-370
0,158831,341,684,-2595,-1497,-312,-43,262,172,-370
0,158836,341,684,-2595,-1497,-312,-43,262,172,-370
0,158842,339,682,-2599,-1500,-306,-44,262,172,-370
0,158848,339,682,-2599,-1500,-306,-44,262,172,-370
0,158853,339,682,-2599,-1500,-306,-44,262,172,-370
0,158859,339,682,-2599,-1500,-306,-44,262,172,-370
0,158864,342,686,-2596,-1485,-300,-50,262,172,-370
0,158870,342,686,-2596,-1485,-300,-50,262,172,-370
0,158875,342,686,-2596,-1485,-300,-50,262,172,-370
0,158881,339,682,-2593,-1489,-305,-42,262,172,-370
0,158886,339,682,-2593,-1489,-305,-42,262,172,-370
0,158893,339,682,-2593,-1489,-305,-42,262,172,-370
0,158898,339,682,-2593,-1489,-305,-42,262,172,-370
0,158903,337,683,-2594,-1487,-307,-45,262,172,-370
0,158909,337,683,-2594,-1487,-307,-45,262,172,-370
0,158915,337,683,-2594,-1487,-307,-45,262,172,-370
0,158920,342,685,-2595,-1492,-303,-51,262,172,-370
0,158925,342,685,-2595,-1492,-303,-51,262,172,-370
0,158931,342,685,-2595,-1492,-303,-51,262,172,-370
0,158937,342,685,-2595,-1492,-303,-51,262,172,-370
0,158942,344,683,-2591,-1484,-305,-54,260,166,-368
0,158947,344,683,-2591,-1484,-305,-54,260,166,-368
0,158952,344,683,-2591,-1484,-305,-54,260,166,-368
0,158958,344,683,-2591,-1484,-305,-54,260,166,-368
0,158963,342,684,-2591,-1488,-301,-45,260,166,-368
0,158968,342,684,-2591,-1488,-301,-45,260,166,-368
0,158974,342,684,-2591,-1488,-301,-45,260,166,-368
0,158980,342,682,-2592,-1493,-297,-46,260,166,-368
0,158986,342,682,-2592,-1493,-297,-46,260,166,-368
0,158991,342,682,-2592,-1493,-297,-46,260,166,-368
0,158996,342,682,-2592,-1493,-297,-46,260,166,-368
0,159001,338,685,-2597,-1489,-302,-51,260,166,-368
0,159006,338,685,-2597,-1489,-302,-51,260,166,-368
0,159012,338,685,-2597,-1489,-302,-51,260,166,-368
0,159017,338,685,-2597,-1489,-302,-51,260,166,-368
0,159023,342,686,-2593,-1493,-302,-40,260,166,-368
0,159029,342,686,-2593,-1493,-302,-40,260,166,-368
0,159034,342,686,-2593,-1493,-302,-40,260,166,-368
0,159039,340,683,-2594,-1488,-308,-47,260,166,-368
0,159045,340,683,-2594,-1488,-308,-47,260,166,-368
0,159050,340,683,-2594,-1488,-308,-47,260,166,-368
0,159055,340,683,-2594,-1488,-308,-47,260,166,-368
0,159062,341,683,-2595,-1486,-303,-41,247,161,-377
0,159068,341,683,-2595,-1486,-303,-41,247,161,-377
0,159073,341,683,-2595,-1486,-303,-41,247,161,-377
0,159078,341,683,-2595,-1486,-303,-41,247,161,-377
0,159084,340,685,-2589,-1485,-307,-42,247,161,-377
0,159090,340,685,-2589,-1485,-307,-42,247,161,-377
0,159095,340,685,-2589,-1485,-307,-42,247,161,-377
0,159100,340,683,-2594,-1491,-304,-40,247,161,-377
0,159106,340,683,-2594,-1491,-304,-40,247,161,-377
0,159112,340,683,-2594,-1491,-304,-40,247,161,-377
0,159117,340,683,-2594,-1491,-304,-40,247,161,-377
0,159122,341,684,-2594,-1491,-305,-45,247,161,-377
0,159128,341,684,-2594,-1491,-305,-45,247,161,-377
0,159134,341,684,-2594,-1491,-305,-45,247,161,-377
0,159139,339,683,-2591,-1491,-301,-42,247,161,-377
0,159144,339,683,-2591,-1491,-301,-42,247,161,-377
0,159151,339,683,-2591,-1491,-301,-42,247,161,-377
0,159156,339,683,-2591,-1491,-301,-42,247,161,-377
0,159161,339,684,-2592,-1497,-296,-42,247,161,-377
0,159167,339,684,-2592,-1497,-296,-42,247,161,-377
0,159172,339,684,-2592,-1497,-296,-42,247,161,-377
0,159177,339,684,-2592,-1497,-296,-42,247,161,-377
0,159183,342,682,-2592,-1493,-300,-46,247,161,-377
0,159188,342,682,-2592,-1493,-300,-46,247,161,-377
0,159195,342,682,-2592,-1493,-300,-46,247,161,-377
0,159201,336,685,-2591,-1485,-309,-43,254,166,-368
0,159207,336,685,-2591,-1485,-309,-43,254,166,-368
0,159213,336,685,-2591,-1485,-309,-43,254,166,-368
0,159218,336,685,-2591,-1485,-309,-43,254,166,-368
0,159223,341,686,-2590,-1480,-305,-51,254,166,-368
0,159229,341,686,-2590,-1480,-305,-51,254,166,-368
0,159235,341,686,-2590,-1480,-305,-51,254,166,-368
0,159240,339,684,-2590,-1483,-310,-49,254,166,-368
0,159245,339,684,-2590,-1483,-310,-49,254,166,-368
0,159251,339,684,-2590,-1483,-310,-49,254,166,-368
0,159256,339,684,-2590,-1483,-310,-49,254,166,-368
0,159262,338,684,-2591,-1489,-307,-40,254,166,-368
0,159267,338,684,-2591,-1489,-307,-40,254,166,-368
0,159272,338,684,-2591,-1489,-307,-40,254,166,-368
0,159279,338,684,-2591,-1489,-307,-40,254,166,-368
0,159284,341,684,-2594,-1488,-305,-41,254,166,-368
0,159289,341,684,-2594,-1488,-305,-41,254,166,-368
0,159295,341,684,-2594,-1488,-305,-41,254,166,-368
0,159300,340,686,-2594,-1496,-312,-45,254,166,-368
0,159306,340,686,-2594,-1496,-312,-45,254,166,-368
0,159311,340,686,-2594,-1496,-312,-45,254,166,-368
0,159316,340,686,-2594,-1496,-312,-45,254,166,-368
0,159322,341,685,-2588,-1493,-305,-44,254,166,-366
0,159328,341,685,-2588,-1493,-305,-44,254,166,-366
0,159333,341,685,-2588,-1493,-305,-44,254,166,-366
0,159338,341,685,-2588,-1493,-305,-44,254,166,-366
0,159344,341,682,-2596,-1488,-308,-49,254,166,-366
0,159349,341,682,-2596,-1488,-308,-49,254,166,-366
0,159354,341,682,-2596,-1488,-308,-49,254,166,-366
0,159361,342,686,-2594,-1499,-306,-49,254,166,-366
0,159366,342,686,-2594,-1499,-306,-49,254,166,-366
0,159372,342,686,-2594,-1499,-306,-49,254,166,-366
0,159377,342,686,-2594,-1499,-306,-49,254,166,-366
0,159383,344,688,-2590,-1494,-299,-47,254,166,-366
0,159389,344,688,-2590,-1494,-299,-47,254,166,-366
0,159394,344,688,-2590,-1494,-299,-47,254,166,-366
0,159400,342,684,-2594,-1488,-292,-44,254,166,-366
0,159406,342,684,-2594,-1488,-292,-44,254,166,-366
0,159412,342,684,-2594,-1488,-292,-44,254,166,-366
0,159419,342,684,-2594,-1488,-292,-44,254,166,-366
0,159425,337,686,-2594,-1483,-296,-51,254,166,-366
0,159430,337,686,-2594,-1483,-296,-51,254,166,-366
0,159436,337,686,-2594,-1483,-296,-51,254,166,-366
0,159441,340,686,-2590,-1484,-295,-44,259,167,-369
0,159448,340,686,-2590,-1484,-295,-44,259,167,-369
0,159453,340,686,-2590,-1484,-295,-44,259,167,-369
0,159458,340,686,-2590,-1484,-295,-44,259,167,-369
0,159464,342,684,-2595,-1496,-303,-46,259,167,-369
0,159469,342,684,-2595,-1496,-303,-46,259,167,-369
0,159474,342,684,-2595,-1496,-303,-46,259,167,-369
0,159479,341,685,-2594,-1485,-307,-44,259,167,-369
0,159485,341,685,-2594,-1485,-307,-44,259,167,-369
0,159491,341,685,-2594,-1485,-307,-44,259,167,-369
0,159496,341,685,-2594,-1485,-307,-44,259,167,-369
0,159501,341,686,-2593,-1480,-299,-45,259,167,-369
0,159507,341,686,-2593,-1480,-299,-45,259,167,-369
0,159512,341,686,-2593,-1480,-299,-45,259,167,-369
0,159518,341,686,-2593,-1480,-299,-45,259,167,-369
0,159523,342,683,-2592,-1493,-301,-41,259,167,-369
0,159529,342,683,-2592,-1493,-301,-41,259,167,-369
0,159535,342,683,-2592,-1493,-301,-41,259,167,-369
0,159540,340,682,-2595,-1489,-302,-49,259,167,-369
0,159545,340,682,-2595,-1489,-302,-49,259,167,-369
0,159550,340,682,-2595,-1489,-302,-49,259,167,-369
0,159556,340,682,-2595,-1489,-302,-49,259,167,-369
0,159562,338,686,-2591,-1486,-304,-46,251,169,-365
0,159567,338,686,-2591,-1486,-304,-46,251,169,-365
0,159574,338,686,-2591,-1486,-304,-46,251,169,-365
0,159579,338,686,-2591,-1486,-304,-46,251,169,-365
0,159584,336,685,-2593,-1482,-303,-45,251,169,-365
0,159590,336,685,-2593,-1482,-303,-45,251,169,-365
0,159595,336,685,-2593,-1482,-303,-45,251,169,-365
0,159601,342,684,-2594,-1488,-294,-45,251,169,-365
0,159606,342,684,-2594,-1488,-294,-45,251,169,-365
0,159612,342,684,-2594,-1488,-294,-45,251,169,-365
0,159618,342,684,-2594,-1488,-294,-45,251,169,-365
0,159623,340,688,-2595,-1491,-294,-41,251,169,-365
0,159629,340,688,-2595,-1491,-294,-41,251,169,-365
0,159634,340,688,-2595,-1491,-294,-41,251,169,-365
0,159640,343,685,-2594,-1485,-295,-45,251,169,-365
0,159646,343,685,-2594,-1485,-295,-45,251,169,-365
0,159651,343,685,-2594,-1485,-295,-45,251,169,-365
0,159657,343,685,-2594,-1485,-295,-45,251,169,-365
0,159663,341,683,-2595,-1483,-303,-49,251,169,-365
0,159669,341,683,-2595,-1483,-303,-49,251,169,-365
0,159673,341,683,-2595,-1483,-303,-49,251,169,-365
0,159679,341,683,-2595,-1483,-303,-49,251,169,-365
0,159684,340,686,-2598,-1490,-301,-40,252,158,-364
0,159690,340,686,-2598,-1490,-301,-40,252,158,-364
0,159695,340,686,-2598,-1490,-301,-40,252,158,-364
0,159700,338,685,-2591,-1496,-301,-36,252,158,-364
0,159706,338,685,-2591,-1496,-301,-36,252,158,-364
0,159712,338,685,-2591,-1496,-301,-36,252,158,-364
0,159717,338,685,-2591,-1496,-301,-36,252,158,-364
0,159722,341,684,-2593,-1489,-308,-48,252,158,-364
0,159728,341,684,-2593,-1489,-308,-48,252,158,-364
0,159733,341,684,-2593,-1489,-308,-48,252,158,-364
0,159738,341,684,-2593,-1489,-308,-48,252,158,-364
0,159744,340,683,-2591,-1493,-305,-48,252,158,-364
0,159749,340,683,-2591,-1493,-305,-48,252,158,-364
0,159755,340,683,-2591,-1493,-305,-48,252,158,-364
0,159760,340,683,-2591,-1493,-305,-48,252,158,-364
0,159765,340,683,-2591,-1493,-305,-48,252,158,-364
0,159770,340,683,-2591,-1493,-305,-48,252,158,-364
0,159776,340,683,-2591,-1493,-305,-48,252,158,-364
0,159781,341,684,-2596,-1486,-293,-45,252,158,-364
0,159787,341,684,-2596,-1486,-293,-45,252,158,-364
0,159792,341,684,-2596,-1486,-293,-45,252,158,-364
0,159798,341,684,-2596,-1486,-293,-45,252,158,-364
0,159802,339,683,-2594,-1485,-300,-41,252,158,-364
0,159808,339,683,-2594,-1485,-300,-41,252,158,-364
0,159813,339,683,-2594,-1485,-300,-41,252,158,-364
0,159819,339,683,-2594,-1485,-300,-41,252,158,-364
0,159824,339,684,-2590,-1492,-306,-45,253,155,-359
0,159830,339,684,-2590,-1492,-306,-45,253,155,-359
0,159836,339,684,-2590,-1492,-306,-45,253,155,-359
0,159842,339,683,-2593,-1497,-308,-44,253,155,-359
0,159847,339,683,-2593,-1497,-308,-44,253,155,-359
0,159852,339,683,-2593,-1497,-308,-44,253,155,-359
0,159857,339,683,-2593,-1497,-308,-44,253,155,-359
0,159863,340,683,-2598,-1496,-303,-45,253,155,-359
0,159868,340,683,-2598,-1496,-303,-45,253,155,-359
0,159875,340,683,-2598,-1496,-303,-45,253,155,-359
0,159880,340,684,-2596,-1492,-300,-52,253,155,-359
0,159885,340,684,-2596,-1492,-300,-52,253,155,-359
0,159891,340,684,-2596,-1492,-300,-52,253,155,-359
0,159896,340,684,-2596,-1492,-300,-52,253,155,-359
0,159902,340,683,-2594,-1483,-302,-49,253,155,-359
0,159907,340,683,-2594,-1483,-302,-49,253,155,-359
0,159913,340,683,-2594,-1483,-302,-49,253,155,-359
0,159919,340,683,-2594,-1483,-302,-49,253,155,-359
0,159924,340,685,-2593,-1485,-303,-46,253,155,-359
0,159929,340,685,-2593,-1485,-303,-46,253,155,-359
0,159935,340,685,-2593,-1485,-303,-46,253,155,-359
0,159941,340,686,-2590,-1493,-299,-41,262,168,-368
0,159946,340,686,-2590,-1493,-299,-41,262,168,-368
0,159952,340,686,-2590,-1493,-299,-41,262,168,-368
0,159959,340,686,-2590,-1493,-299,-41,262,168,-368
0,159964,340,687,-2593,-1492,-302,-48,262,168,-368
0,159970,340,687,-2593,-1492,-302,-48,262,168,-368
0,159975,340,687,-2593,-1492,-302,-48,262,168,-368
0,159980,345,685,-2592,-1494,-310,-41,262,168,-368
0,159986,345,685,-2592,-1494,-310,-41,262,168,-368
0,159991,345,685,-2592,-1494,-310,-41,262,168,-368
0,159996,345,685,-2592,-1494,-310,-41,262,168,-368
0,160003,340,686,-2596,-1488,-313,-46,262,168,-368
0,160008,340,686,-2596,-1488,-313,-46,262,168,-368
0,160013,340,686,-2596,-1488,-313,-46,262,168,-368
0,160018,340,686,-2596,-1488,-313,-46,262,168,-368
0,160024,339,684,-2591,-1485,-306,-45,262,168,-368
0,160029,339,684,-2591,-1485,-306,-45,262,168,-368
0,160034,339,684,-2591,-1485,-306,-45,262,168,-368
0,160039,338,685,-2594,-1486,-308,-42,262,168,-368
0,160046,338,685,-2594,-1486,-308,-42,262,168,-368
0,160052,338,685,-2594,-1486,-308,-42,262,168,-368
0,160057,338,685,-2594,-1486,-308,-42,262,168,-368
0,160063,340,682,-2593,-1491,-305,-43,254,168,-366
0,160068,340,682,-2593,-1491,-305,-43,254,168,-366
0,160073,340,682,-2593,-1491,-305,-43,254,168,-366
0,160079,340,682,-2593,-1491,-305,-43,254,168,-366
0,160084,340,683,-2594,-1487,-305,-43,254,168,-366
0,160091,340,683,-2594,-1487,-305,-43,254,168,-366
0,160096,340,683,-2594,-1487,-305,-43,254,168,-366
0,160102,340,685,-2591,-1487,-298,-44,254,168,-366
0,160107,340,685,-2591,-1487,-298,-44,254,168,-366
0,160112,340,685,-2591,-1487,-298,-44,254,168,-366
0,160117,340,685,-2591,-1487,-298,-44,254,168,-366
0,160122,342,686,-2592,-1493,-307,-43,254,168,-366
0,160129,342,686,-2592,-1493,-307,-43,254,168,-366
0,160135,342,686,-2592,-1493,-307,-43,254,168,-366
0,160140,337,680,-2596,-1487,-304,-47,254,168,-366
0,160146,337,680,-2596,-1487,-304,-47,254,168,-366
0,160151,337,680,-2596,-1487,-304,-47,254,168,-366
0,160156,337,680,-2596,-1487,-304,-47,254,168,-366
0,160162,337,686,-2591,-1489,-305,-44,254,168,-366
0,160167,337,686,-2591,-1489,-305,-44,254,168,-366
0,160173,337,686,-2591,-1489,-305,-44,254,168,-366
0,160179,337,686,-2591,-1489,-305,-44,254,168,-366
0,160184,337,684,-2592,-1492,-301,-43,262,166,-366
0,160190,337,684,-2592,-1492,-301,-43,262,166,-366
0,160196,337,684,-2592,-1492,-301,-43,262,166,-366
0,160201,344,684,-2591,-1489,-302,-51,262,166,-366
0,160206,344,684,-2591,-1489,-302,-51,262,166,-366
0,160212,344,684,-2591,-1489,-302,-51,262,166,-366
0,160218,344,684,-2591,-1489,-302,-51,262,166,-366
0,160223,339,683,-2591,-1487,-299,-52,262,166,-366
0,160229,339,683,-2591,-1487,-299,-52,262,166,-366
0,160234,339,683,-2591,-1487,-299,-52,262,166,-366
0,160239,339,683,-2591,-1487,-299,-52,262,166,-366
0,160245,340,683,-2592,-1490,-303,-45,262,166,-366
0,160250,340,683,-2592,-1490,-303,-45,262,166,-366
0,160256,340,683,-2592,-1490,-303,-45,262,166,-366
0,160262,342,684,-2595,-1496,-307,-44,262,166,-366
0,160267,342,684,-2595,-1496,-307,-44,262,166,-366
0,160273,342,684,-2595,-1496,-307,-44,262,166,-366
0,160279,342,684,-2595,-1496,-307,-44,262,166,-366
0,160284,339,683,-2594,-1490,-305,-47,262,166,-366
0,160289,339,683,-2594,-1490,-305,-47,262,166,-366
0,160294,339,683,-2594,-1490,-305,-47,262,166,-366
0,160300,342,685,-2590,-1491,-303,-46,262,166,-366
0,160306,342,685,-2590,-1491,-303,-46,255,159,-371
0,160311,342,685,-2590,-1491,-303,-46,255,159,-371
0,160317,342,685,-2590,-1491,-303,-46,255,159,-371
0,160323,339,686,-2594,-1494,-297,-46,255,159,-371
0,160328,339,686,-2594,-1494,-297,-46,255,159,-371
0,160334,339,686,-2594,-1494,-297,-46,255,159,-371
0,160339,339,686,-2594,-1494,-297,-46,255,159,-371
0,160346,338,684,-2598,-1488,-312,-47,255,159,-371
0,160351,338,684,-2598,-1488,-312,-47,255,159,-371
0,160356,338,684,-2598,-1488,-312,-47,255,159,-371
0,160362,343,682,-2593,-1486,-305,-55,255,159,-371
0,160367,343,682,-2593,-1486,-305,-55,255,159,-371
0,160373,343,682,-2593,-1486,-305,-55,255,159,-371
0,160378,343,682,-2593,-1486,-305,-55,255,159,-371
0,160384,339,685,-2593,-1490,-299,-45,255,159,-371
0,160390,339,685,-2593,-1490,-299,-45,255,159,-371
0,160395,339,685,-2593,-1490,-299,-45,255,159,-371
0,160401,341,685,-2597,-1488,-305,-42,255,159,-371
0,160406,341,685,-2597,-1488,-305,-42,255,159,-371
0,160412,341,685,-2597,-1488,-305,-42,255,159,-371
0,160417,341,685,-2597,-1488,-305,-42,255,159,-371
0,160422,337,688,-2595,-1484,-303,-42,255,159,-371
0,160430,337,688,-2595,-1484,-303,-42,255,159,-371
0,160437,337,688,-2595,-1484,-303,-42,255,159,-371
0,160444,339,684,-2589,-1482,-305,-44,261,167,-365
0,160450,339,684,-2589,-1482,-305,-44,261,167,-365
0,160455,339,684,-2589,-1482,-305,-44,261,167,-365
0,160461,340,684,-2592,-1486,-300,-48,261,167,-365
0,160466,340,684,-2592,-1486,-300,-48,261,167,-365
0,160472,340,684,-2592,-1486,-300,-48,261,167,-365
0,160478,340,684,-2592,-1486,-300,-48,261,167,-365
0,160483,340,684,-2592,-1496,-309,-48,261,167,-365
0,160489,340,684,-2592,-1496,-309,-48,261,167,-365
0,160494,340,684,-2592,-1496,-309,-48,261,167,-365
0,160499,340,684,-2592,-1496,-309,-48,261,167,-365
0,160504,341,685,-2596,-1493,-305,-46,261,167,-365
0,160509,341,685,-2596,-1493,-305,-46,261,167,-365
0,160516,341,685,-2596,-1493,-305,-46,261,167,-365
0,160521,343,685,-2593,-1490,-307,-46,261,167,-365
0,160526,343,685,-2593,-1490,-307,-46,261,167,-365
0,160531,343,685,-2593,-1490,-307,-46,261,167,-365
0,160536,343,685,-2593,-1490,-307,-46,261,167,-365
0,160542,340,684,-2598,-1490,-306,-53,261,167,-365
0,160547,340,684,-2598,-1490,-306,-53,261,167,-365
0,160552,340,684,-2598,-1490,-306,-53,261,167,-365
0,160558,340,684,-2598,-1490,-306,-53,261,167,-365
0,160563,342,685,-2595,-1491,-302,-47,256,162,-368
0,160569,342,685,-2595,-1491,-302,-47,256,162,-368
0,160574,342,685,-2595,-1491,-302,-47,256,162,-368
0,160579,342,685,-2595,-1491,-302,-47,256,162,-368
0,160585,338,682,-2595,-1492,-303,-42,256,162,-368
0,160591,338,682,-2595,-1492,-303,-42,256,162,-368
0,160596,338,682,-2595,-1492,-303,-42,256,162,-368
0,160602,341,682,-2595,-1488,-305,-45,256,162,-368
0,160607,341,682,-2595,-1488,-305,-45,256,162,-368
0,160613,341,682,-2595,-1488,-305,-45,256,162,-368
0,160618,341,682,-2595,-1488,-305,-45,256,162,-368
0,160623,340,683,-2594,-1493,-303,-47,256,162,-368
0,160629,340,683,-2594,-1493,-303,-47,256,162,-368
0,160634,340,683,-2594,-1493,-303,-47,256,162,-368
0,160640,340,683,-2594,-1493,-303,-47,256,162,-368
0,160645,340,683,-2587,-1488,-300,-45,256,162,-368
0,160650,340,683,-2587,-1488,-300,-45,256,162,-368
0,160655,340,683,-2587,-1488,-300,-45,256,162,-368
0,160661,342,684,-2594,-1489,-297,-46,256,162,-368
0,160667,342,684,-2594,-1489,-297,-46,256,162,-368
0,160673,342,684,-2594,-1489,-297,-46,256,162,-368
0,160678,342,684,-2594,-1489,-297,-46,256,162,-368
0,160685,341,688,-2591,-1484,-299,-53,256,166,-370
0,160690,341,688,-2591,-1484,-299,-53,256,166,-370
0,160696,341,688,-2591,-1484,-299,-53,256,166,-370
0,160701,340,686,-2590,-1495,-308,-47,256,166,-370
0,160707,340,686,-2590,-1495,-308,-47,256,166,-370
0,160712,340,686,-2590,-1495,-308,-47,256,166,-370
0,160717,340,686,-2590,-1495,-308,-47,256,166,-370
0,160723,340,684,-2592,-1478,-305,-40,256,166,-370
0,160729,340,684,-2592,-1478,-305,-40,256,166,-370
0,160735,340,684,-2592,-1478,-305,-40,256,166,-370
0,160740,339,686,-2593,-1484,-303,-52,256,166,-370
0,160745,339,686,-2593,-1484,-303,-52,256,166,-370
0,160750,339,686,-2593,-1484,-303,-52,256,166,-370
0,160756,339,686,-2593,-1484,-303,-52,256,166,-370
0,160761,341,685,-2595,-1489,-305,-43,256,166,-370
0,160766,341,685,-2595,-1489,-305,-43,256,166,-370
0,160772,341,685,-2595,-1489,-305,-43,256,166,-370
0,160778,341,685,-2595,-1489,-305,-43,256,166,-370
0,160783,339,684,-2591,-1489,-300,-49,256,166,-370
0,160789,339,684,-2591,-1489,-300,-49,256,166,-370
0,160795,339,684,-2591,-1489,-300,-49,256,166,-370
0,160800,338,685,-2597,-1493,-315,-46,256,166,-370
0,160805,338,685,-2597,-1493,-315,-46,254,166,-360
0,160812,338,685,-2597,-1493,-315,-46,254,166,-360
0,160818,338,685,-2597,-1493,-315,-46,254,166,-360
0,160823,343,685,-2592,-1491,-304,-45,254,166,-360
0,160829,343,685,-2592,-1491,-304,-45,254,166,-360
0,160834,343,685,-2592,-1491,-304,-45,254,166,-360
0,160840,343,685,-2598,-1486,-304,-43,254,166,-360
0,160846,343,685,-2598,-1486,-304,-43,254,166,-360
0,160851,343,685,-2598,-1486,-304,-43,254,166,-360
0,160857,343,685,-2598,-1486,-304,-43,254,166,-360
0,160862,342,683,-2593,-1491,-301,-44,254,166,-360
0,160868,342,683,-2593,-1491,-301,-44,254,166,-360
0,160873,342,683,-2593,-1491,-301,-44,254,166,-360
0,160878,342,683,-2593,-1491,-301,-44,254,166,-360
0,160884,342,684,-2591,-1494,-299,-40,254,166,-360
0,160890,342,684,-2591,-1494,-299,-40,254,166,-360
0,160896,342,684,-2591,-1494,-299,-40,254,166,-360
0,160901,341,686,-2591,-1486,-299,-42,254,166,-360
0,160906,341,686,-2591,-1486,-299,-42,254,166,-360
0,160912,341,686,-2591,-1486,-299,-42,254,166,-360
0,160917,341,686,-2591,-1486,-299,-42,254,166,-360
0,160922,339,685,-2595,-1493,-304,-51,251,169,-361
0,160927,339,685,-2595,-1493,-304,-51,251,169,-361
0,160932,339,685,-2595,-1493,-304,-51,251,169,-361
0,160937,339,685,-2595,-1493,-304,-51,251,169,-361
0,160943,341,683,-2589,-1494,-307,-54,251,169,-361
0,160949,341,683,-2589,-1494,-307,-54,251,169,-361
0,160954,341,683,-2589,-1494,-307,-54,251,169,-361
0,160959,341,683,-2589,-1494,-307,-54,251,169,-361
0,160964,341,684,-2597,-1491,-304,-43,251,169,-361
0,160970,341,684,-2597,-1491,-304,-43,251,169,-361
0,160976,341,684,-2597,-1491,-304,-43,251,169,-361
0,160982,342,686,-2596,-1496,-299,-45,251,169,-361
0,160987,342,686,-2596,-1496,-299,-45,251,169,-361
0,160992,342,686,-2596,-1496,-299,-45,251,169,-361
0,160998,342,686,-2596,-1496,-299,-45,251,169,-361
0,161003,341,683,-2597,-1493,-300,-46,251,169,-361
0,161009,341,683,-2597,-1493,-300,-46,251,169,-361
0,161015,341,683,-2597,-1493,-300,-46,251,169,-361
0,161020,339,683,-2598,-1486,-305,-46,251,169,-361
0,161026,339,683,-2598,-1486,-305,-46,251,169,-361
0,161031,339,683,-2598,-1486,-305,-46,251,169,-361
0,161037,339,683,-2598,-1486,-305,-46,251,169,-361
0,161042,341,682,-2595,-1484,-306,-52,251,169,-361
0,161048,341,682,-2595,-1484,-306,-52,251,169,-361
0,161053,341,682,-2595,-1484,-306,-52,251,169,-361
0,161059,341,682,-2595,-1484,-306,-52,251,169,-361
0,161065,345,685,-2594,-1488,-304,-47,257,169,-367
0,161071,345,685,-2594,-1488,-304,-47,257,169,-367
0,161077,345,685,-2594,-1488,-304,-47,257,169,-367
0,161083,340,686,-2593,-1493,-299,-47,257,169,-367
0,161088,340,686,-2593,-1493,-299,-47,257,169,-367
0,161094,340,686,-2593,-1493,-299,-47,257,169,-367
0,161099,340,686,-2593,-1493,-299,-47,257,169,-367
0,161105,340,683,-2591,-1489,-309,-49,257,169,-367
0,161111,340,683,-2591,-1489,-309,-49,257,169,-367
0,161117,340,683,-2591,-1489,-309,-49,257,169,-367
0,161122,340,682,-2592,-1482,-305,-44,257,169,-367
0,161127,340,682,-2592,-1482,-305,-44,257,169,-367
0,161133,340,682,-2592,-1482,-305,-44,257,169,-367
0,161138,340,682,-2592,-1482,-305,-44,257,169,-367
0,161144,339,689,-2595,-1489,-306,-40,257,169,-367
0,161149,339,689,-2595,-1489,-306,-40,257,169,-367
0,161156,339,689,-2595,-1489,-306,-40,257,169,-367
0,161161,340,685,-2597,-1493,-303,-47,257,169,-367
0,161166,340,685,-2597,-1493,-303,-47,257,169,-367
0,161171,340,685,-2597,-1493,-303,-47,257,169,-367
0,161177,340,685,-2597,-1493,-303,-47,257,169,-367
0,161183,341,686,-2592,-1493,-306,-48,257,163,-365
0,161189,341,686,-2592,-1493,-306,-48,257,163,-365
0,161195,341,686,-2592,-1493,-306,-48,257,163,-365
0,161201,340,686,-2594,-1486,-308,-49,257,163,-365
0,161207,340,686,-2594,-1486,-308,-49,257,163,-365
0,161212,340,686,-2594,-1486,-308,-49,257,163,-365
0,161218,340,686,-2594,-1486,-308,-49,257,163,-365
0,161223,343,686,-2595,-1487,-305,-52,257,163,-365
0,161228,343,686,-2595,-1487,-305,-52,257,163,-365
0,161234,343,686,-2595,-1487,-305,-52,257,163,-365
0,161240,343,686,-2595,-1487,-305,-52,257,163,-365
0,161246,342,685,-2593,-1488,-304,-53,257,163,-365
0,161251,342,685,-2593,-1488,-304,-53,257,163,-365
0,161257,342,685,-2593,-1488,-304,-53,257,163,-365
0,161262,339,686,-2595,-1491,-299,-47,257,163,-365
0,161268,339,686,-2595,-1491,-299,-47,257,163,-365
0,161273,339,686,-2595,-1491,-299,-47,257,163,-365
0,161278,339,686,-2595,-1491,-299,-47,257,163,-365
0,161285,343,685,-2595,-1477,-300,-38,257,163,-365
0,161290,343,685,-2595,-1477,-300,-38,257,163,-365
0,161296,343,685,-2595,-1477,-300,-38,257,163,-365
0,161301,339,686,-2593,-1484,-304,-47,265,163,-365
0,161306,339,686,-2593,-1484,-304,-47,265,163,-365
0,161312,339,686,-2593,-1484,-304,-47,265,163,-365
0,161317,339,686,-2593,-1484,-304,-47,265,163,-365
0,161323,341,684,-2591,-1478,-303,-46,265,163,-365
0,161329,341,684,-2591,-1478,-303,-46,265,163,-365
0,161334,341,684,-2591,-1478,-303,-46,265,163,-365
0,161339,341,684,-2591,-1478,-303,-46,265,163,-365
0,161345,343,685,-2593,-1490,-306,-44,265,163,-365
0,161351,343,685,-2593,-1490,-306,-44,265,163,-365
0,161357,343,685,-2593,-1490,-306,-44,265,163,-365
0,161362,343,684,-2591,-1491,-307,-47,265,163,-365
0,161368,343,684,-2591,-1491,-307,-47,265,163,-365
0,161374,343,684,-2591,-1491,-307,-47,265,163,-365
0,161379,343,684,-2591,-1491,-307,-47,265,163,-365
0,161384,339,686,-2597,-1488,-303,-43,265,163,-365
0,161390,339,686,-2597,-1488,-303,-43,265,163,-365
0,161396,339,686,-2597,-1488,-303,-43,265,163,-365
0,161401,341,684,-2589,-1492,-301,-46,265,163,-365
0,161408,341,684,-2589,-1492,-301,-46,265,163,-365
0,161413,341,684,-2589,-1492,-301,-46,265,163,-365
0,161418,341,684,-2589,-1492,-301,-46,265,163,-365
0,161424,342,686,-2591,-1496,-303,-49,266,162,-366
0,161429,342,686,-2591,-1496,-303,-49,266,162,-366
0,161434,342,686,-2591,-1496,-303,-49,266,162,-366
0,161440,342,686,-2591,-1496,-303,-49,266,162,-366
0,161445,343,684,-2592,-1491,-301,-45,266,162,-366
0,161451,343,684,-2592,-1491,-301,-45,266,162,-366
0,161457,343,684,-2592,-1491,-301,-45,266,162,-366
0,161462,343,686,-2592,-1487,-302,-48,266,162,-366
0,161468,343,686,-2592,-1487,-302,-48,266,162,-366
0,161473,343,686,-2592,-1487,-302,-48,266,162,-366
0,161479,343,686,-2592,-1487,-302,-48,266,162,-366
0,161486,340,684,-2591,-1491,-306,-50,266,162,-366
0,161491,340,684,-2591,-1491,-306,-50,266,162,-366
0,161497,340,684,-2591,-1491,-306,-50,266,162,-366
0,161503,340,684,-2591,-1491,-306,-50,266,162,-366
0,161509,340,684,-2591,-1491,-306,-50,266,162,-366
0,161514,340,684,-2591,-1491,-306,-50,266,162,-366
0,161520,340,684,-2591,-1491,-306,-50,266,162,-366
0,161525,341,686,-2592,-1482,-303,-41,266,162,-366
0,161531,341,686,-2592,-1482,-303,-41,266,162,-366
0,161537,341,686,-2592,-1482,-303,-41,266,162,-366
0,161543,340,685,-2596,-1478,-300,-45,255,163,-367
0,161548,340,685,-2596,-1478,-300,-45,255,163,-367
0,161553,340,685,-2596,-1478,-300,-45,255,163,-367
0,161558,340,685,-2596,-1478,-300,-45,255,163,-367
0,161564,340,682,-2590,-1490,-304,-50,255,163,-367
0,161569,340,682,-2590,-1490,-304,-50,255,163,-367
0,161575,340,682,-2590,-1490,-304,-50,255,163,-367
0,161581,340,687,-2595,-1491,-306,-44,255,163,-367
0,161586,340,687,-2595,-1491,-306,-44,255,163,-367
0,161592,340,687,-2595,-1491,-306,-44,255,163,-367
0,161597,340,687,-2595,-1491,-306,-44,255,163,-367
0,161603,344,683,-2596,-1486,-310,-47,255,163,-367
0,161608,344,683,-2596,-1486,-310,-47,255,163,-367
0,161614,344,683,-2596,-1486,-310,-47,255,163,-367
0,161619,344,683,-2596,-1486,-310,-47,255,163,-367
0,161625,342,685,-2592,-1492,-308,-47,255,163,-367
0,161630,342,685,-2592,-1492,-308,-47,255,163,-367
0,161636,342,685,-2592,-1492,-308,-47,255,163,-367
0,161641,342,684,-2594,-1489,-306,-51,255,163,-367
0,161646,342,684,-2594,-1489,-306,-51,255,163,-367
0,161652,342,684,-2594,-1489,-306,-51,255,163,-367
0,161657,342,684,-2594,-1489,-306,-51,255,163,-367
0,161664,342,685,-2595,-1484,-308,-47,255,163,-367
0,161669,342,685,-2595,-1484,-308,-47,255,163,-367
0,161674,342,685,-2595,-1484,-308,-47,255,163,-367
0,161681,340,688,-2590,-1488,-304,-46,260,164,-360
0,161687,340,688,-2590,-1488,-304,-46,260,164,-360
0,161692,340,688,-2590,-1488,-304,-46,260,164,-360
0,161698,340,688,-2590,-1488,-304,-46,260,164,-360
0,161703,342,688,-2590,-1490,-311,-45,260,164,-360
0,161710,342,688,-2590,-1490,-311,-45,260,164,-360
0,161715,342,688,-2590,-1490,-311,-45,260,164,-360
0,161720,342,688,-2590,-1490,-311,-45,260,164,-360
0,161726,340,685,-2596,-1494,-304,-43,260,164,-360
0,161731,340,685,-2596,-1494,-304,-43,260,164,-360
0,161736,340,685,-2596,-1494,-304,-43,260,164,-360
0,161742,343,685,-2598,-1486,-298,-43,260,164,-360
0,161747,343,685,-2598,-1486,-298,-43,260,164,-360
0,161753,343,685,-2598,-1486,-298,-43,260,164,-360
0,161759,343,685,-2598,-1486,-298,-43,260,164,-360
0,161764,341,685,-2592,-1492,-304,-40,260,164,-360
0,161770,341,685,-2592,-1492,-304,-40,260,164,-360
0,161775,341,685,-2592,-1492,-304,-40,260,164,-360
0,161780,341,685,-2599,-1488,-305,-37,260,164,-360
0,161786,341,685,-2599,-1488,-305,-37,260,164,-360
0,161793,341,685,-2599,-1488,-305,-37,260,164,-360
0,161798,341,685,-2599,-1488,-305,-37,260,164,-360
0,161804,341,684,-2591,-1484,-305,-47,257,163,-363
0,161809,341,684,-2591,-1484,-305,-47,257,163,-363
0,161814,341,684,-2591,-1484,-305,-47,257,163,-363
0,161820,341,684,-2591,-1484,-305,-47,257,163,-363
0,161825,340,683,-2593,-1488,-304,-43,257,163,-363
0,161830,340,683,-2593,-1488,-304,-43,257,163,-363
0,161836,340,683,-2593,-1488,-304,-43,257,163,-363
0,161842,339,684,-2596,-1486,-298,-53,257,163,-363
0,161847,339,684,-2596,-1486,-298,-53,257,163,-363
0,161853,339,684,-2596,-1486,-298,-53,257,163,-363
0,161858,339,684,-2596,-1486,-298,-53,257,163,-363
0,161864,341,685,-2590,-1496,-302,-56,257,163,-363
0,161869,341,685,-2590,-1496,-302,-56,257,163,-363
0,161874,341,685,-2590,-1496,-302,-56,257,163,-363
0,161880,341,685,-2590,-1496,-302,-56,257,163,-363
0,161886,340,685,-2597,-1495,-305,-49,257,163,-363
0,161891,340,685,-2597,-1495,-305,-49,257,163,-363
0,161896,340,685,-2597,-1495,-305,-49,257,163,-363
0,161902,343,685,-2599,-1496,-308,-45,257,163,-363
0,161908,343,685,-2599,-1496,-308,-45,257,163,-363
0,161913,343,685,-2599,-1496,-308,-45,257,163,-363
0,161918,343,685,-2599,-1496,-308,-45,257,163,-363
0,161924,340,685,-2591,-1486,-303,-50,262,166,-358
0,161930,340,685,-2591,-1486,-303,-50,262,166,-358
0,161935,340,685,-2591,-1486,-303,-50,262,166,-358
0,161940,343,685,-2587,-1489,-301,-46,262,166,-358
0,161946,343,685,-2587,-1489,-301,-46,262,166,-358
0,161951,343,685,-2587,-1489,-301,-46,262,166,-358
0,161957,343,685,-2587,-1489,-301,-46,262,166,-358
0,161963,343,684,-2590,-1489,-308,-46,262,166,-358
0,161968,343,684,-2590,-1489,-308,-46,262,166,-358
0,161974,343,684,-2590,-1489,-308,-46,262,166,-358
0,161979,343,684,-2590,-1489,-308,-46,262,166,-358
0,161985,339,684,-2592,-1488,-311,-48,262,166,-358
0,161990,339,684,-2592,-1488,-311,-48,262,166,-358
0,161996,339,684,-2592,-1488,-311,-48,262,166,-358
0,162001,337,682,-2597,-1490,-305,-52,262,166,-358
0,162007,337,682,-2597,-1490,-305,-52,262,166,-358
0,162013,337,682,-2597,-1490,-305,-52,262,166,-358
0,162018,337,682,-2597,-1490,-305,-52,262,166,-358
0,162023,341,682,-2596,-1487,-300,-45,262,166,-358
0,162028,341,682,-2596,-1487,-300,-45,262,166,-358
0,162034,341,682,-2596,-1487,-300,-45,262,166,-358
0,162039,341,682,-2596,-1487,-300,-45,262,166,-358
0,162045,338,681,-2592,-1487,-307,-43,247,169,-361
0,162052,338,681,-2592,-1487,-307,-43,247,169,-361
0,162057,338,681,-2592,-1487,-307,-43,247,169,-361
0,162063,339,686,-2594,-1492,-306,-43,247,169,-361
0,162068,339,686,-2594,-1492,-306,-43,247,169,-361
0,162073,339,686,-2594,-1492,-306,-43,247,169,-361
0,162079,339,686,-2594,-1492,-306,-43,247,169,-361
0,162084,342,682,-2592,-1488,-306,-45,247,169,-361
0,162089,342,682,-2592,-1488,-306,-45,247,169,-361
0,162096,342,682,-2592,-1488,-306,-45,247,169,-361
0,162101,339,684,-2596,-1483,-309,-47,247,169,-361
0,162107,339,684,-2596,-1483,-309,-47,247,169,-361
0,162112,339,684,-2596,-1483,-309,-47,247,169,-361
0,162118,339,684,-2596,-1483,-309,-47,247,169,-361
0,162123,340,684,-2593,-1493,-310,-45,247,169,-361
0,162128,340,684,-2593,-1493,-310,-45,247,169,-361
0,162135,340,684,-2593,-1493,-310,-45,247,169,-361
0,162140,340,684,-2593,-1493,-310,-45,247,169,-361
0,162145,336,684,-2591,-1497,-304,-48,247,169,-361
0,162151,336,684,-2591,-1497,-304,-48,247,169,-361
0,162156,336,684,-2591,-1497,-304,-48,247,169,-361
0,162162,342,682,-2596,-1490,-302,-51,247,169,-361
0,162167,342,682,-2596,-1490,-302,-51,247,169,-361
0,162172,342,682,-2596,-1490,-302,-51,247,169,-361
0,162179,342,682,-2596,-1490,-302,-51,247,169,-361
0,162184,338,683,-2593,-1491,-298,-48,258,166,-368
0,162190,338,683,-2593,-1491,-298,-48,258,166,-368
0,162195,338,683,-2593,-1491,-298,-48,258,166,-368
0,162201,341,682,-2588,-1485,-304,-40,258,166,-368
0,162206,341,682,-2588,-1485,-304,-40,258,166,-368
0,162211,341,682,-2588,-1485,-304,-40,258,166,-368
0,162217,341,682,-2588,-1485,-304,-40,258,166,-368
0,162223,341,686,-2597,-1486,-303,-43,258,166,-368
0,162229,341,686,-2597,-1486,-303,-43,258,166,-368
0,162234,341,686,-2597,-1486,-303,-43,258,166,-368
0,162239,341,686,-2597,-1486,-303,-43,258,166,-368
0,162245,342,685,-2593,-1495,-302,-47,258,166,-368
0,162251,342,685,-2593,-1495,-302,-47,258,166,-368
0,162256,342,685,-2593,-1495,-302,-47,258,166,-368
0,162263,343,687,-2594,-1496,-301,-41,258,166,-368
0,162268,343,687,-2594,-1496,-301,-41,258,166,-368
0,162273,343,687,-2594,-1496,-301,-41,258,166,-368
0,162279,343,687,-2594,-1496,-301,-41,258,166,-368
0,162284,340,685,-2595,-1489,-306,-51,258,166,-368
0,162289,340,685,-2595,-1489,-306,-51,258,166,-368
0,162295,340,685,-2595,-1489,-306,-51,258,166,-368
0,162300,340,685,-2595,-1489,-306,-51,258,166,-368
0,162307,341,683,-2588,-1496,-305,-54,257,165,-363
0,162312,341,683,-2588,-1496,-305,-54,257,165,-363
0,162317,341,683,-2588,-1496,-305,-54,257,165,-363
0,162323,341,685,-2592,-1495,-303,-54,257,165,-363
0,162328,341,685,-2592,-1495,-303,-54,257,165,-363
0,162333,341,685,-2592,-1495,-303,-54,257,165,-363
0,162339,341,685,-2592,-1495,-303,-54,257,165,-363
0,162344,338,686,-2595,-1489,-300,-51,257,165,-363
0,162350,338,686,-2595,-1489,-300,-51,257,165,-363
0,162356,338,686,-2595,-1489,-300,-51,257,165,-363
0,162361,342,685,-2596,-1487,-305,-53,257,165,-363
0,162367,342,685,-2596,-1487,-305,-53,257,165,-363
0,162372,342,685,-2596,-1487,-305,-53,257,165,-363
0,162378,342,685,-2596,-1487,-305,-53,257,165,-363
0,162382,344,685,-2593,-1489,-300,-53,257,165,-363
0,162388,344,685,-2593,-1489,-300,-53,257,165,-363
0,162394,344,685,-2593,-1489,-300,-53,257,165,-363
0,162400,344,685,-2593,-1489,-300,-53,257,165,-363
0,162405,342,685,-2592,-1487,-300,-46,257,165,-363
0,162411,342,685,-2592,-1487,-300,-46,257,165,-363
0,162416,342,685,-2592,-1487,-300,-46,257,165,-363
0,162422,338,683,-2582,-1485,-301,-44,258,162,-362
0,162427,338,683,-2582,-1485,-301,-44,258,162,-362
0,162434,338,683,-2582,-1485,-301,-44,258,162,-362
0,162439,338,683,-2582,-1485,-301,-44,258,162,-362
0,162445,341,685,-2593,-1490,-303,-45,258,162,-362
0,162451,341,685,-2593,-1490,-303,-45,258,162,-362
0,162456,341,685,-2593,-1490,-303,-45,258,162,-362
0,162462,341,686,-2595,-1488,-295,-45,258,162,-362
0,162467,341,686,-2595,-1488,-295,-45,258,162,-362
0,162473,341,686,-2595,-1488,-295,-45,258,162,-362
0,162479,341,686,-2595,-1488,-295,-45,258,162,-362
0,162485,341,687,-2596,-1489,-300,-48,258,162,-362
0,162490,341,687,-2596,-1489,-300,-48,258,162,-362
0,162495,341,687,-2596,-1489,-300,-48,258,162,-362
0,162500,341,687,-2596,-1489,-300,-48,258,162,-362
0,162506,340,682,-2594,-1486,-306,-47,258,162,-362
0,162512,340,682,-2594,-1486,-306,-47,258,162,-362
0,162516,340,682,-2594,-1486,-306,-47,258,162,-362
0,162523,340,684,-2593,-1488,-310,-48,258,162,-362
0,162529,340,684,-2593,-1488,-310,-48,258,162,-362
0,162535,340,684,-2593,-1488,-310,-48,258,162,-362
0,162540,340,684,-2593,-1488,-310,-48,258,162,-362
0,162546,341,685,-2593,-1481,-308,-35,249,161,-369
0,162551,341,685,-2593,-1481,-308,-35,249,161,-369
0,162556,341,685,-2593,-1481,-308,-35,249,161,-369
0,162562,338,684,-2592,-1494,-311,-45,249,161,-369
0,162568,338,684,-2592,-1494,-311,-45,249,161,-369
0,162573,338,684,-2592,-1494,-311,-45,249,161,-369
0,162578,338,684,-2592,-1494,-311,-45,249,161,-369
0,162583,341,686,-2591,-1487,-302,-47,249,161,-369
0,162588,341,686,-2591,-1487,-302,-47,249,161,-369
0,162594,341,686,-2591,-1487,-302,-47,249,161,-369
0,162599,341,686,-2591,-1487,-302,-47,249,161,-369
0,162606,341,685,-2594,-1487,-300,-48,249,161,-369
0,162611,341,685,-2594,-1487,-300,-48,249,161,-369
0,162616,341,685,-2594,-1487,-300,-48,249,161,-369
0,162622,339,684,-2595,-1494,-300,-49,249,161,-369
0,162627,339,684,-2595,-1494,-300,-49,249,161,-369
0,162632,339,684,-2595,-1494,-300,-49,249,161,-369
0,162638,339,684,-2595,-1494,-300,-49,249,161,-369
0,162644,338,684,-2596,-1485,-300,-48,249,161,-369
0,162649,338,684,-2596,-1485,-300,-48,249,161,-369
0,162655,338,684,-2596,-1485,-300,-48,249,161,-369
0,162660,338,684,-2596,-1485,-300,-48,249,161,-369
0,162666,342,681,-2597,-1481,-309,-47,257,165,-365
0,162671,342,681,-2597,-1481,-309,-47,257,165,-365
0,162677,342,681,-2597,-1481,-309,-47,257,165,-365
0,162683,341,683,-2595,-1495,-305,-48,257,165,-365
0,162689,341,683,-2595,-1495,-305,-48,257,165,-365
0,162695,341,683,-2595,-1495,-305,-48,257,165,-365
0,162700,341,683,-2595,-1495,-305,-48,257,165,-365
0,162706,343,686,-2592,-1486,-301,-46,257,165,-365
0,162711,343,686,-2592,-1486,-301,-46,257,165,-365
0,162717,343,686,-2592,-1486,-301,-46,257,165,-365
0,162722,342,685,-2593,-1484,-301,-49,257,165,-365
0,162727,342,685,-2593,-1484,-301,-49,257,165,-365
0,162734,342,685,-2593,-1484,-301,-49,257,165,-365
0,162739,342,685,-2593,-1484,-301,-49,257,165,-365
0,162744,338,683,-2593,-1482,-299,-44,257,165,-365
0,162750,338,683,-2593,-1482,-299,-44,257,165,-365
0,162755,338,683,-2593,-1482,-299,-44,257,165,-365
0,162761,340,686,-2596,-1489,-307,-50,257,165,-365
0,162766,340,686,-2596,-1489,-307,-50,257,165,-365
0,162771,340,686,-2596,-1489,-307,-50,257,165,-365
0,162778,340,686,-2596,-1489,-307,-50,257,165,-365
0,162783,340,685,-2593,-1491,-304,-43,257,165,-365
0,162789,340,685,-2593,-1491,-304,-43,257,165,-365
0,162794,340,685,-2593,-1491,-304,-43,257,165,-365
0,162799,340,685,-2593,-1491,-304,-43,257,165,-365
0,162805,340,683,-2586,-1486,-306,-44,253,161,-365
0,162811,340,683,-2586,-1486,-306,-44,253,161,-365
0,162817,340,683,-2586,-1486,-306,-44,253,161,-365
0,162822,340,680,-2588,-1491,-308,-50,253,161,-365
0,162827,340,680,-2588,-1491,-308,-50,253,161,-365
0,162833,340,680,-2588,-1491,-308,-50,253,161,-365
0,162837,340,680,-2588,-1491,-308,-50,253,161,-365
0,162843,339,685,-2595,-1487,-308,-46,253,161,-365
0,162849,339,685,-2595,-1487,-308,-46,253,161,-365
0,162854,339,685,-2595,-1487,-308,-46,253,161,-365
0,162860,339,685,-2595,-1487,-308,-46,253,161,-365
0,162866,337,684,-2597,-1489,-307,-48,253,161,-365
0,162871,337,684,-2597,-1489,-307,-48,253,161,-365
0,162877,337,684,-2597,-1489,-307,-48,253,161,-365
0,162881,340,686,-2597,-1494,-301,-51,253,161,-365
0,162887,340,686,-2597,-1494,-301,-51,253,161,-365
0,162893,340,686,-2597,-1494,-301,-51,253,161,-365
0,162898,340,686,-2597,-1494,-301,-51,253,161,-365
0,162904,340,679,-2590,-1491,-306,-47,253,161,-365
0,162910,340,679,-2590,-1491,-306,-47,253,161,-365
0,162915,340,679,-2590,-1491,-306,-47,253,161,-365
0,162921,340,679,-2590,-1491,-306,-47,253,161,-365
0,162925,340,679,-2590,-1491,-306,-47,258,158,-364
0,162931,340,679,-2590,-1491,-306,-47,258,158,-364
0,162937,340,679,-2590,-1491,-306,-47,258,158,-364
0,162942,344,684,-2588,-1488,-301,-51,258,158,-364
0,162948,344,684,-2588,-1488,-301,-51,258,158,-364
0,162954,344,684,-2588,-1488,-301,-51,258,158,-364
0,162959,344,684,-2588,-1488,-301,-51,258,158,-364
0,162964,341,685,-2593,-1485,-293,-45,258,158,-364
0,162969,341,685,-2593,-1485,-293,-45,258,158,-364
0,162975,341,685,-2593,-1485,-293,-45,258,158,-364
0,162980,341,685,-2593,-1485,-293,-45,258,158,-364
0,162987,340,684,-2594,-1485,-300,-45,258,158,-364
0,162992,340,684,-2594,-1485,-300,-45,258,158,-364
0,162998,340,684,-2594,-1485,-300,-45,258,158,-364
0,163003,338,680,-2597,-1485,-302,-44,258,158,-364
0,163009,338,680,-2597,-1485,-302,-44,258,158,-364
0,163014,338,680,-2597,-1485,-302,-44,258,158,-364
0,163019,338,680,-2597,-1485,-302,-44,258,158,-364
0,163024,340,684,-2600,-1488,-302,-48,258,158,-364
0,163031,340,684,-2600,-1488,-302,-48,258,158,-364
0,163036,340,684,-2600,-1488,-302,-48,258,158,-364
0,163041,341,684,-2590,-1489,-304,-49,258,158,-364
0,163047,341,684,-2590,-1489,-304,-49,254,168,-366
0,163052,341,684,-2590,-1489,-304,-49,254,168,-366
0,163057,341,684,-2590,-1489,-304,-49,254,168,-366
0,163063,342,684,-2592,-1488,-304,-51,254,168,-366
0,163067,342,684,-2592,-1488,-304,-51,254,168,-366
0,163073,342,684,-2592,-1488,-304,-51,254,168,-366
0,163079,342,684,-2592,-1488,-304,-51,254,168,-366
0,163084,340,684,-2591,-1487,-300,-47,254,168,-366
0,163090,340,684,-2591,-1487,-300,-47,254,168,-366
0,163095,340,684,-2591,-1487,-300,-47,254,168,-366
0,163100,340,684,-2591,-1487,-300,-47,254,168,-366
0,163106,342,681,-2596,-1492,-304,-40,254,168,-366
0,163111,342,681,-2596,-1492,-304,-40,254,168,-366
0,163117,342,681,-2596,-1492,-304,-40,254,168,-366
0,163123,340,685,-2596,-1489,-307,-46,254,168,-366
0,163129,340,685,-2596,-1489,-307,-46,254,168,-366
0,163134,340,685,-2596,-1489,-307,-46,254,168,-366
0,163140,340,685,-2596,-1489,-307,-46,254,168,-366
0,163145,340,685,-2591,-1490,-303,-44,254,168,-366
0,163151,340,685,-2591,-1490,-303,-44,254,168,-366
0,163156,340,685,-2591,-1490,-303,-44,254,168,-366
0,163163,339,684,-2590,-1488,-313,-47,257,167,-365
0,163168,339,684,-2590,-1488,-313,-47,257,167,-365
0,163173,339,684,-2590,-1488,-313,-47,257,167,-365
0,163178,339,684,-2590,-1488,-313,-47,257,167,-365
0,163184,339,684,-2585,-1492,-309,-44,257,167,-365
0,163189,339,684,-2585,-1492,-309,-44,257,167,-365
0,163195,339,684,-2585,-1492,-309,-44,257,167,-365
0,163201,339,684,-2585,-1492,-309,-44,257,167,-365
0,163206,340,685,-2596,-1493,-306,-46,257,167,-365
0,163212,340,685,-2596,-1493,-306,-46,257,167,-365
0,163217,340,685,-2596,-1493,-306,-46,257,167,-365
0,163223,340,679,-2596,-1491,-297,-45,257,167,-365
0,163229,340,679,-2596,-1491,-297,-45,257,167,-365
0,163235,340,679,-2596,-1491,-297,-45,257,167,-365
0,163241,340,683,-2593,-1492,-298,-45,257,167,-365
0,163246,340,683,-2593,-1492,-298,-45,257,167,-365
0,163252,340,683,-2593,-1492,-298,-45,257,167,-365
0,163258,340,683,-2593,-1492,-298,-45,257,167,-365
0,163263,341,684,-2592,-1488,-296,-45,257,167,-365
0,163269,341,684,-2592,-1488,-296,-45,257,167,-365
0,163275,341,684,-2592,-1488,-296,-45,257,167,-365
0,163280,341,684,-2592,-1488,-296,-45,257,167,-365
0,163286,341,687,-2599,-1492,-302,-50,258,168,-370
0,163292,341,687,-2599,-1492,-302,-50,258,168,-370
0,163297,341,687,-2599,-1492,-302,-50,258,168,-370
0,163302,339,682,-2594,-1485,-302,-44,258,168,-370
0,163307,339,682,-2594,-1485,-302,-44,258,168,-370
0,163313,339,682,-2594,-1485,-302,-44,258,168,-370
0,163318,339,682,-2594,-1485,-302,-44,258,168,-370
0,163324,341,683,-2602,-1488,-300,-47,258,168,-370
0,163330,341,683,-2602,-1488,-300,-47,258,168,-370
0,163335,341,683,-2602,-1488,-300,-47,258,168,-370
0,163341,341,683,-2602,-1488,-300,-47,258,168,-370
0,163346,340,681,-2592,-1492,-297,-44,258,168,-370
0,163352,340,681,-2592,-1492,-297,-44,258,168,-370
0,163357,340,681,-2592,-1492,-297,-44,258,168,-370
0,163362,343,682,-2596,-1488,-306,-51,258,168,-370
0,163367,343,682,-2596,-1488,-306,-51,258,168,-370
0,163373,343,682,-2596,-1488,-306,-51,258,168,-370
0,163379,343,682,-2596,-1488,-306,-51,258,168,-370
0,163384,342,684,-2592,-1484,-306,-48,258,168,-370
0,163389,342,684,-2592,-1484,-306,-48,258,168,-370
0,163395,342,684,-2592,-1484,-306,-48,258,168,-370
0,163401,342,684,-2592,-1484,-306,-48,258,168,-370
0,163406,340,683,-2595,-1486,-308,-47,258,168,-370
0,163412,340,683,-2595,-1486,-308,-47,258,168,-370
0,163418,340,683,-2595,-1486,-308,-47,258,168,-370
0,163423,340,684,-2592,-1499,-308,-47,247,163,-365
0,163429,340,684,-2592,-1499,-308,-47,247,163,-365
0,163434,340,684,-2592,-1499,-308,-47,247,163,-365
0,163440,340,684,-2592,-1499,-308,-47,247,163,-365
0,163445,337,686,-2594,-1494,-301,-49,247,163,-365
0,163451,337,686,-2594,-1494,-301,-49,247,163,-365
0,163457,337,686,-2594,-1494,-301,-49,247,163,-365
0,163462,343,686,-2595,-1489,-298,-48,247,163,-365
0,163468,343,686,-2595,-1489,-298,-48,247,163,-365
0,163473,343,686,-2595,-1489,-298,-48,247,163,-365
0,163479,343,686,-2595,-1489,-298,-48,247,163,-365
0,163484,341,684,-2598,-1489,-303,-52,247,163,-365
0,163489,341,684,-2598,-1489,-303,-52,247,163,-365
0,163495,341,684,-2598,-1489,-303,-52,247,163,-365
0,163500,341,684,-2598,-1489,-303,-52,247,163,-365
0,163506,342,684,-2599,-1485,-305,-46,247,163,-365
0,163511,342,684,-2599,-1485,-305,-46,247,163,-365
0,163517,342,684,-2599,-1485,-305,-46,247,163,-365
0,163522,342,686,-2592,-1486,-307,-54,247,163,-365
0,163528,342,686,-2592,-1486,-307,-54,247,163,-365
0,163533,342,686,-2592,-1486,-307,-54,247,163,-365
0,163538,342,686,-2592,-1486,-307,-54,247,163,-365
0,163545,339,686,-2588,-1485,-304,-51,250,166,-366
0,163550,339,686,-2588,-1485,-304,-51,250,166,-366
0,163555,339,686,-2588,-1485,-304,-51,250,166,-366
0,163561,339,686,-2588,-1485,-304,-51,250,166,-366
0,163566,340,683,-2592,-1491,-306,-47,250,166,-366
0,163572,340,683,-2592,-1491,-306,-47,250,166,-366
0,163578,340,683,-2592,-1491,-306,-47,250,166,-366
0,163584,343,682,-2597,-1486,-309,-45,250,166,-366
0,163589,343,682,-2597,-1486,-309,-45,250,166,-366
0,163595,343,682,-2597,-1486,-309,-45,250,166,-366
0,163600,343,682,-2597,-1486,-309,-45,250,166,-366
0,163606,339,684,-2596,-1488,-305,-43,250,166,-366
0,163612,339,684,-2596,-1488,-305,-43,250,166,-366
0,163617,339,684,-2596,-1488,-305,-43,250,166,-366
0,163622,343,684,-2591,-1488,-305,-40,250,166,-366
0,163629,343,684,-2591,-1488,-305,-40,250,166,-366
0,163634,343,684,-2591,-1488,-305,-40,250,166,-366
0,163640,343,684,-2591,-1488,-305,-40,250,166,-366
0,163645,337,685,-2591,-1484,-302,-39,250,166,-366
0,163651,337,685,-2591,-1484,-302,-39,250,166,-366
0,163656,337,685,-2591,-1484,-302,-39,250,166,-366
0,163662,340,684,-2589,-1483,-300,-51,253,167,-369
0,163668,340,684,-2589,-1483,-300,-51,253,167,-369
0,163674,340,684,-2589,-1483,-300,-51,253,167,-369
0,163679,340,684,-2589,-1483,-300,-51,253,167,-369
0,163684,339,684,-2592,-1487,-299,-42,253,167,-369
0,163690,339,684,-2592,-1487,-299,-42,253,167,-369
0,163695,339,684,-2592,-1487,-299,-42,253,167,-369
0,163701,340,685,-2590,-1489,-299,-39,253,167,-369
0,163706,340,685,-2590,-1489,-299,-39,253,167,-369
0,163713,340,685,-2590,-1489,-299,-39,253,167,-369
0,163718,340,685,-2590,-1489,-299,-39,253,167,-369
0,163724,343,681,-2593,-1488,-305,-46,253,167,-369
0,163729,343,681,-2593,-1488,-305,-46,253,167,-369
0,163735,343,681,-2593,-1488,-305,-46,253,167,-369
0,163739,343,681,-2593,-1488,-305,-46,253,167,-369
0,163745,341,683,-2589,-1481,-306,-46,253,167,-369
0,163750,341,683,-2589,-1481,-306,-46,253,167,-369
0,163757,341,683,-2589,-1481,-306,-46,253,167,-369
0,163763,340,684,-2593,-1488,-299,-46,253,167,-369
0,163768,340,684,-2593,-1488,-299,-46,253,167,-369
0,163773,340,684,-2593,-1488,-299,-46,253,167,-369
0,163779,340,684,-2593,-1488,-299,-46,253,167,-369
0,163784,338,682,-2593,-1496,-306,-52,252,164,-366
0,163789,338,682,-2593,-1496,-306,-52,252,164,-366
0,163795,338,682,-2593,-1496,-306,-52,252,164,-366
0,163801,338,682,-2593,-1496,-306,-52,252,164,-366
0,163807,338,681,-2593,-1490,-303,-46,252,164,-366
0,163812,338,681,-2593,-1490,-303,-46,252,164,-366
0,163818,338,681,-2593,-1490,-303,-46,252,164,-366
0,163823,340,686,-2591,-1490,-306,-41,252,164,-366
0,163829,340,686,-2591,-1490,-306,-41,252,164,-366
0,163834,340,686,-2591,-1490,-306,-41,252,164,-366
0,163840,340,686,-2591,-1490,-306,-41,252,164,-366
0,163845,342,683,-2595,-1491,-300,-50,252,164,-366
0,163851,342,683,-2595,-1491,-300,-50,252,164,-366
0,163856,342,683,-2595,-1491,-300,-50,252,164,-366
0,163861,342,683,-2595,-1491,-300,-50,252,164,-366
0,163866,341,682,-2594,-1484,-305,-55,252,164,-366
0,163872,341,682,-2594,-1484,-305,-55,252,164,-366
0,163878,341,682,-2594,-1484,-305,-55,252,164,-366
0,163884,342,683,-2597,-1484,-311,-50,252,164,-366
0,163889,342,683,-2597,-1484,-311,-50,252,164,-366
0,163895,342,683,-2597,-1484,-311,-50,252,164,-366
0,163900,342,683,-2597,-1484,-311,-50,252,164,-366
0,163906,336,685,-2597,-1486,-306,-51,255,165,-373
0,163911,336,685,-2597,-1486,-306,-51,255,165,-373
0,163916,336,685,-2597,-1486,-306,-51,255,165,-373
0,163922,342,684,-2590,-1489,-295,-47,255,165,-373
0,163928,342,684,-2590,-1489,-295,-47,255,165,-373
0,163933,342,684,-2590,-1489,-295,-47,255,165,-373
0,163939,342,684,-2590,-1489,-295,-47,255,165,-373
0,163944,339,683,-2597,-1480,-301,-42,255,165,-373
0,163950,339,683,-2597,-1480,-301,-42,255,165,-373
0,163954,339,683,-2597,-1480,-301,-42,255,165,-373
0,163960,339,683,-2597,-1480,-301,-42,255,165,-373
0,163965,341,685,-2594,-1486,-302,-40,255,165,-373
0,163972,341,685,-2594,-1486,-302,-40,255,165,-373
0,163977,341,685,-2594,-1486,-302,-40,255,165,-373
0,163983,339,684,-2589,-1484,-305,-50,255,165,-373
0,163987,339,684,-2589,-1484,-305,-50,255,165,-373
0,163993,339,684,-2589,-1484,-305,-50,255,165,-373
0,163998,339,684,-2589,-1484,-305,-50,255,165,-373
0,164003,343,685,-2592,-1482,-302,-55,255,165,-373
0,164008,343,685,-2592,-1482,-302,-55,255,165,-373
0,164015,343,685,-2592,-1482,-302,-55,255,165,-373
0,164020,343,685,-2592,-1482,-302,-55,255,165,-373
0,164026,342,685,-2598,-1490,-305,-52,255,165,-373
0,164032,342,685,-2598,-1490,-305,-52,255,165,-373
0,164037,342,685,-2598,-1490,-305,-52,255,165,-373
0,164043,339,684,-2593,-1484,-301,-48,254,166,-368
0,164049,339,684,-2593,-1484,-301,-48,254,166,-368
0,164056,339,684,-2593,-1484,-301,-48,254,166,-368
0,164061,339,684,-2593,-1484,-301,-48,254,166,-368
0,164066,340,682,-2593,-1486,-305,-51,254,166,-368
0,164072,340,682,-2593,-1486,-305,-51,254,166,-368
0,164077,340,682,-2593,-1486,-305,-51,254,166,-368
0,164083,341,684,-2593,-1491,-302,-44,254,166,-368
0,164089,341,684,-2593,-1491,-302,-44,254,166,-368
0,164094,341,684,-2593,-1491,-302,-44,254,166,-368
0,164100,341,684,-2593,-1491,-302,-44,254,166,-368
0,164106,341,685,-2594,-1485,-300,-46,254,166,-368
0,164111,341,685,-2594,-1485,-300,-46,254,166,-368
0,164117,341,685,-2594,-1485,-300,-46,254,166,-368
0,164123,341,685,-2594,-1485,-300,-46,254,166,-368
0,164129,341,685,-2594,-1485,-300,-46,254,166,-368
0,164135,341,685,-2594,-1485,-300,-46,254,166,-368
0,164141,341,685,-2594,-1485,-300,-46,254,166,-368
0,164146,341,685,-2595,-1490,-306,-52,254,166,-368
0,164151,341,685,-2595,-1490,-306,-52,254,166,-368
0,164156,341,685,-2595,-1490,-306,-52,254,166,-368
0,164161,342,684,-2594,-1486,-306,-37,254,166,-368
0,164167,342,684,-2594,-1486,-306,-37,254,166,-372
0,164172,342,684,-2594,-1486,-306,-37,254,166,-372
0,164177,342,684,-2594,-1486,-306,-37,254,166,-372
0,164183,339,682,-2598,-1488,-308,-42,254,166,-372
0,164188,339,682,-2598,-1488,-308,-42,254,166,-372
0,164193,339,682,-2598,-1488,-308,-42,254,166,-372
0,164199,339,682,-2598,-1488,-308,-42,254,166,-372
0,164204,339,685,-2598,-1493,-300,-47,254,166,-372
0,164210,339,685,-2598,-1493,-300,-47,254,166,-372
0,164215,339,685,-2598,-1493,-300,-47,254,166,-372
0,164220,339,685,-2598,-1493,-300,-47,254,166,-372
0,164226,341,683,-2597,-1492,-300,-45,254,166,-372
0,164231,341,683,-2597,-1492,-300,-45,254,166,-372
0,164236,341,683,-2597,-1492,-300,-45,254,166,-372
0,164242,340,681,-2589,-1492,-308,-45,254,166,-372
0,164246,340,681,-2589,-1492,-308,-45,254,166,-372
0,164252,340,681,-2589,-1492,-308,-45,254,166,-372
0,164257,340,681,-2589,-1492,-308,-45,254,166,-372
0,164263,339,683,-2596,-1491,-298,-42,254,166,-372
0,164268,339,683,-2596,-1491,-298,-42,254,166,-372
0,164274,339,683,-2596,-1491,-298,-42,254,166,-372
0,164279,339,683,-2596,-1491,-298,-42,254,166,-372
0,164285,341,683,-2589,-1491,-293,-44,251,171,-369
0,164290,341,683,-2589,-1491,-293,-44,251,171,-369
0,164295,341,683,-2589,-1491,-293,-44,251,171,-369
0,164300,341,683,-2589,-1491,-293,-44,251,171,-369
0,164306,341,682,-2593,-1495,-301,-48,251,171,-369
0,164312,341,682,-2593,-1495,-301,-48,251,171,-369
0,164317,341,682,-2593,-1495,-301,-48,251,171,-369
0,164323,341,683,-2591,-1490,-302,-46,251,171,-369
0,164328,341,683,-2591,-1490,-302,-46,251,171,-369
0,164334,341,683,-2591,-1490,-302,-46,251,171,-369
0,164338,341,683,-2591,-1490,-302,-46,251,171,-369
0,164344,340,681,-2591,-1487,-299,-48,251,171,-369
0,164349,340,681,-2591,-1487,-299,-48,251,171,-369
0,164356,340,681,-2591,-1487,-299,-48,251,171,-369
0,164361,340,681,-2591,-1487,-299,-48,251,171,-369
0,164367,344,684,-2593,-1489,-301,-50,251,171,-369
0,164372,344,684,-2593,-1489,-301,-50,251,171,-369
0,164378,344,684,-2593,-1489,-301,-50,251,171,-369
0,164382,341,682,-2592,-1488,-299,-51,251,171,-369
0,164388,341,682,-2592,-1488,-299,-51,251,171,-369
0,164395,341,682,-2592,-1488,-299,-51,251,171,-369
0,164400,341,682,-2592,-1488,-299,-51,251,171,-369
0,164405,342,686,-2597,-1489,-298,-51,253,167,-363
0,164411,342,686,-2597,-1489,-298,-51,253,167,-363
0,164416,342,686,-2597,-1489,-298,-51,253,167,-363
0,164421,341,678,-2590,-1498,-301,-47,253,167,-363
0,164427,341,678,-2590,-1498,-301,-47,253,167,-363
0,164432,341,678,-2590,-1498,-301,-47,253,167,-363
0,164439,341,678,-2590,-1498,-301,-47,253,167,-363
0,164444,341,685,-2595,-1494,-295,-44,253,167,-363
0,164449,341,685,-2595,-1494,-295,-44,253,167,-363
0,164454,341,685,-2595,-1494,-295,-44,253,167,-363
0,164460,341,685,-2595,-1494,-295,-44,253,167,-363
0,164465,338,686,-2591,-1487,-302,-49,253,167,-363
0,164470,338,686,-2591,-1487,-302,-49,253,167,-363
0,164476,338,686,-2591,-1487,-302,-49,253,167,-363
0,164483,340,683,-2594,-1493,-303,-46,253,167,-363
0,164488,340,683,-2594,-1493,-303,-46,253,167,-363
0,164494,340,683,-2594,-1493,-303,-46,253,167,-363
0,164499,340,683,-2594,-1493,-303,-46,253,167,-363
0,164505,343,685,-2587,-1489,-304,-41,253,167,-363
0,164510,343,685,-2587,-1489,-304,-41,253,167,-363
0,164515,343,685,-2587,-1489,-304,-41,253,167,-363
0,164521,343,685,-2587,-1489,-304,-41,253,167,-363
0,164527,342,688,-2597,-1491,-301,-41,257,165,-365
0,164532,342,688,-2597,-1491,-301,-41,257,165,-365
0,164538,342,688,-2597,-1491,-301,-41,257,165,-365
0,164543,342,682,-2593,-1493,-304,-50,257,165,-365
0,164549,342,682,-2593,-1493,-304,-50,257,165,-365
0,164553,342,682,-2593,-1493,-304,-50,257,165,-365
0,164559,342,682,-2593,-1493,-304,-50,257,165,-365
0,164564,340,683,-2595,-1489,-305,-50,257,165,-365
0,164571,340,683,-2595,-1489,-305,-50,257,165,-365
0,164576,340,683,-2595,-1489,-305,-50,257,165,-365
0,164582,340,680,-2595,-1485,-305,-44,257,165,-365
0,164586,340,680,-2595,-1485,-305,-44,257,165,-365
0,164592,340,680,-2595,-1485,-305,-44,257,165,-365
0,164597,340,680,-2595,-1485,-305,-44,257,165,-365
0,164603,340,684,-2589,-1489,-307,-51,257,165,-365
0,164609,340,684,-2589,-1489,-307,-51,257,165,-365
0,164615,340,684,-2589,-1489,-307,-51,257,165,-365
0,164620,340,684,-2589,-1489,-307,-51,257,165,-365
0,164625,339,682,-2594,-1489,-302,-51,257,165,-365
0,164630,339,682,-2594,-1489,-302,-51,257,165,-365
0,164635,339,682,-2594,-1489,-302,-51,257,165,-365
0,164641,339,682,-2594,-1489,-302,-51,257,165,-365
0,164646,341,685,-2591,-1493,-304,-44,257,165,-365
0,164652,341,685,-2591,-1493,-304,-44,257,165,-365
0,164657,341,685,-2591,-1493,-304,-44,257,165,-365
