imu,time,ax,ay,az,gx,gy,gz,mx,my,mz
1,151618,-3533,376,-2642,-139,-219,-97,154,176,-398
1,151626,-3533,376,-2642,-139,-219,-97,154,176,-398
1,151634,-3537,376,-2643,-134,-221,-96,154,176,-398
1,151643,-3537,376,-2643,-134,-221,-96,154,176,-398
1,151651,-3538,377,-2645,-134,-220,-88,154,176,-398
1,151658,-3538,377,-2645,-134,-220,-88,154,176,-398
1,151664,-3538,377,-2645,-134,-220,-88,154,176,-398
1,151671,-3535,375,-2649,-137,-219,-92,154,176,-398
1,151678,-3535,375,-2649,-137,-219,-92,154,176,-398
1,151686,-3535,375,-2649,-137,-219,-92,154,176,-398
1,151691,-3534,376,-2636,-135,-226,-94,151,177,-403
1,151697,-3534,376,-2636,-135,-226,-94,151,177,-403
1,151703,-3534,376,-2636,-135,-226,-94,151,177,-403
1,151710,-3534,377,-2640,-139,-225,-93,151,177,-403
1,151716,-3534,377,-2640,-139,-225,-93,151,177,-403
1,151723,-3534,377,-2640,-139,-225,-93,151,177,-403
1,151729,-3537,376,-2646,-136,-221,-93,151,177,-403
1,151735,-3537,376,-2646,-136,-221,-93,151,177,-403
1,151741,-3537,376,-2646,-136,-221,-93,151,177,-403
1,151746,-3537,376,-2646,-136,-221,-93,151,177,-403
1,151752,-3535,377,-2644,-136,-226,-94,151,177,-403
1,151757,-3535,377,-2644,-136,-226,-94,151,177,-403
1,151763,-3535,377,-2644,-136,-226,-94,151,177,-403
1,151769,-3536,378,-2642,-140,-215,-86,151,177,-403
1,151774,-3536,378,-2642,-140,-215,-86,151,177,-403
1,151780,-3536,378,-2642,-140,-215,-86,151,177,-403
1,151785,-3536,378,-2642,-140,-215,-86,151,177,-403
1,151791,-3535,377,-2645,-139,-218,-87,151,177,-403
1,151797,-3535,377,-2645,-139,-218,-87,151,177,-403
1,151802,-3535,377,-2645,-139,-218,-87,151,177,-403
1,151809,-3535,377,-2645,-139,-218,-87,151,177,-403
1,151814,-3534,379,-2642,-140,-220,-92,153,173,-389
1,151819,-3534,379,-2642,-140,-220,-92,153,173,-389
1,151824,-3534,379,-2642,-140,-220,-92,153,173,-389
1,151830,-3536,379,-2642,-140,-219,-94,153,173,-389
1,151835,-3536,379,-2642,-140,-219,-94,153,173,-389
1,151841,-3536,379,-2642,-140,-219,-94,153,173,-389
1,151846,-3536,379,-2642,-140,-219,-94,153,173,-389
1,151852,-3537,374,-2644,-138,-224,-94,153,173,-389
1,151857,-3537,374,-2644,-138,-224,-94,153,173,-389
1,151862,-3537,374,-2644,-138,-224,-94,153,173,-389
1,151868,-3537,374,-2644,-138,-224,-94,153,173,-389
1,151873,-3534,377,-2641,-134,-221,-93,153,173,-389
1,151879,-3534,377,-2641,-134,-221,-93,153,173,-389
1,151883,-3534,377,-2641,-134,-221,-93,153,173,-389
1,151888,-3533,373,-2645,-138,-221,-99,153,173,-389
1,151895,-3533,373,-2645,-138,-221,-99,153,173,-389
1,151900,-3533,373,-2645,-138,-221,-99,153,173,-389
1,151906,-3533,373,-2645,-138,-221,-99,153,173,-389
1,151911,-3533,377,-2644,-138,-224,-97,153,173,-389
1,151917,-3533,377,-2644,-138,-224,-97,153,173,-389
1,151922,-3533,377,-2644,-138,-224,-97,153,173,-389
1,151928,-3533,377,-2644,-138,-224,-97,153,173,-389
1,151934,-3537,374,-2640,-134,-219,-98,151,175,-389
1,151940,-3537,374,-2640,-134,-219,-98,151,175,-389
1,151945,-3537,374,-2640,-134,-219,-98,151,175,-389
1,151950,-3538,379,-2642,-139,-224,-100,151,175,-389
1,151956,-3538,379,-2642,-139,-224,-100,151,175,-389
1,151961,-3538,379,-2642,-139,-224,-100,151,175,-389
1,151966,-3538,379,-2642,-139,-224,-100,151,175,-389
1,151972,-3535,375,-2643,-140,-216,-94,151,175,-389
1,151979,-3535,375,-2643,-140,-216,-94,151,175,-389
1,151984,-3535,375,-2643,-140,-216,-94,151,175,-389
1,151989,-3535,375,-2643,-140,-216,-94,151,175,-389
1,151994,-3535,379,-2644,-137,-219,-96,151,175,-389
1,151999,-3535,379,-2644,-137,-219,-96,151,175,-389
1,152005,-3535,379,-2644,-137,-219,-96,151,175,-389
1,152010,-3535,375,-2642,-140,-211,-91,151,175,-389
1,152016,-3535,375,-2642,-140,-211,-91,151,175,-389
1,152023,-3535,375,-2642,-140,-211,-91,151,175,-389
1,152028,-3535,375,-2642,-140,-211,-91,151,175,-389
1,152033,-3534,378,-2645,-139,-215,-101,151,175,-389
1,152038,-3534,378,-2645,-139,-215,-101,151,175,-389
1,152044,-3534,378,-2645,-139,-215,-101,151,175,-389
1,152050,-3536,376,-2640,-142,-223,-105,152,172,-394
1,152056,-3536,376,-2640,-142,-223,-105,152,172,-394
1,152061,-3536,376,-2640,-142,-223,-105,152,172,-394
1,152067,-3536,376,-2640,-142,-223,-105,152,172,-394
1,152072,-3536,378,-2641,-141,-223,-95,152,172,-394
1,152077,-3536,378,-2641,-141,-223,-95,152,172,-394
1,152083,-3536,378,-2641,-141,-223,-95,152,172,-394
1,152088,-3536,378,-2641,-141,-223,-95,152,172,-394
1,152096,-3537,376,-2640,-137,-217,-92,152,172,-394
1,152102,-3537,376,-2640,-137,-217,-92,152,172,-394
1,152109,-3537,376,-2640,-137,-217,-92,152,172,-394
1,152114,-3536,377,-2638,-136,-217,-93,152,172,-394
1,152119,-3536,377,-2638,-136,-217,-93,152,172,-394
1,152124,-3536,377,-2638,-136,-217,-93,152,172,-394
1,152130,-3531,376,-2644,-140,-220,-91,152,172,-394
1,152135,-3531,376,-2644,-140,-220,-91,152,172,-394
1,152140,-3531,376,-2644,-140,-220,-91,152,172,-394
1,152145,-3531,376,-2644,-140,-220,-91,152,172,-394
1,152151,-3536,378,-2643,-137,-214,-91,152,172,-394
1,152157,-3536,378,-2643,-137,-214,-91,152,172,-394
1,152162,-3536,378,-2643,-137,-214,-91,152,172,-394
1,152168,-3536,378,-2643,-137,-214,-91,152,172,-394
1,152174,-3536,376,-2644,-134,-214,-95,155,185,-391
1,152179,-3536,376,-2644,-134,-214,-95,155,185,-391
1,152184,-3536,376,-2644,-134,-214,-95,155,185,-391
1,152190,-3536,378,-2635,-135,-218,-87,155,185,-391
1,152196,-3536,378,-2635,-135,-218,-87,155,185,-391
1,152201,-3536,378,-2635,-135,-218,-87,155,185,-391
1,152206,-3536,378,-2635,-135,-218,-87,155,185,-391
1,152212,-3536,377,-2642,-138,-228,-99,155,185,-391
1,152218,-3536,377,-2642,-138,-228,-99,155,185,-391
1,152223,-3536,377,-2642,-138,-228,-99,155,185,-391
1,152228,-3536,377,-2642,-138,-228,-99,155,185,-391
1,152233,-3537,375,-2643,-136,-226,-93,155,185,-391
1,152240,-3537,375,-2643,-136,-226,-93,155,185,-391
1,152245,-3537,375,-2643,-136,-226,-93,155,185,-391
1,152250,-3535,378,-2646,-132,-219,-89,155,185,-391
1,152256,-3535,378,-2646,-132,-219,-89,155,185,-391
1,152261,-3535,378,-2646,-132,-219,-89,155,185,-391
1,152266,-3535,378,-2646,-132,-219,-89,155,185,-391
1,152271,-3537,375,-2642,-130,-219,-90,155,185,-391
1,152278,-3537,375,-2642,-130,-219,-90,155,185,-391
1,152283,-3537,375,-2642,-130,-219,-90,155,185,-391
1,152289,-3537,375,-2642,-130,-219,-90,155,185,-391
1,152294,-3535,376,-2644,-136,-222,-86,155,185,-391
1,152300,-3535,376,-2644,-136,-222,-86,155,185,-391
1,152305,-3535,376,-2644,-136,-222,-86,155,185,-391
1,152310,-3535,376,-2644,-136,-222,-86,155,185,-391
1,152316,-3535,376,-2644,-136,-222,-86,155,185,-391
1,152322,-3535,376,-2644,-136,-222,-86,155,185,-391
1,152328,-3535,376,-2644,-136,-222,-86,155,185,-391
1,152333,-3537,378,-2641,-141,-222,-90,155,185,-391
1,152339,-3537,378,-2641,-141,-222,-90,155,185,-391
1,152344,-3537,378,-2641,-141,-222,-90,155,185,-391
1,152350,-3535,376,-2645,-139,-228,-95,155,185,-391
1,152355,-3535,376,-2645,-139,-228,-95,155,185,-391
1,152360,-3535,376,-2645,-139,-228,-95,155,185,-391
1,152367,-3535,376,-2645,-139,-228,-95,155,185,-391
1,152373,-3535,376,-2644,-139,-216,-94,155,185,-391
1,152378,-3535,376,-2644,-139,-216,-94,155,185,-391
1,152383,-3535,376,-2644,-139,-216,-94,155,185,-391
1,152388,-3535,376,-2644,-139,-216,-94,155,185,-391
1,152394,-3539,375,-2648,-143,-221,-99,155,185,-391
1,152399,-3539,375,-2648,-143,-221,-99,155,185,-391
1,152404,-3539,375,-2648,-143,-221,-99,155,185,-391
1,152411,-3534,377,-2645,-142,-220,-95,155,185,-391
1,152416,-3534,377,-2645,-142,-220,-95,155,185,-391
1,152422,-3534,377,-2645,-142,-220,-95,155,185,-391
1,152427,-3534,377,-2645,-142,-220,-95,155,185,-391
1,152432,-3537,377,-2637,-137,-218,-92,148,176,-394
1,152438,-3537,377,-2637,-137,-218,-92,148,176,-394
1,152443,-3537,377,-2637,-137,-218,-92,148,176,-394
1,152450,-3535,376,-2646,-139,-224,-91,148,176,-394
1,152455,-3535,376,-2646,-139,-224,-91,148,176,-394
1,152461,-3535,376,-2646,-139,-224,-91,148,176,-394
1,152467,-3535,376,-2646,-139,-224,-91,148,176,-394
1,152472,-3535,376,-2643,-135,-216,-89,148,176,-394
1,152478,-3535,376,-2643,-135,-216,-89,148,176,-394
1,152484,-3535,376,-2643,-135,-216,-89,148,176,-394
1,152489,-3537,375,-2639,-138,-221,-91,148,176,-394
1,152495,-3537,375,-2639,-138,-221,-91,148,176,-394
1,152501,-3537,375,-2639,-138,-221,-91,148,176,-394
1,152506,-3537,375,-2639,-138,-221,-91,148,176,-394
1,152511,-3538,377,-2644,-138,-212,-95,148,176,-394
1,152517,-3538,377,-2644,-138,-212,-95,148,176,-394
1,152523,-3538,377,-2644,-138,-212,-95,148,176,-394
1,152528,-3538,377,-2644,-138,-212,-95,148,176,-394
1,152534,-3539,375,-2643,-138,-215,-90,148,176,-394
1,152540,-3539,375,-2643,-138,-215,-90,148,176,-394
1,152545,-3539,375,-2643,-138,-215,-90,148,176,-394
1,152550,-3537,376,-2636,-133,-215,-95,151,179,-393
1,152555,-3537,376,-2636,-133,-215,-95,151,179,-393
1,152561,-3537,376,-2636,-133,-215,-95,151,179,-393
1,152566,-3537,376,-2636,-133,-215,-95,151,179,-393
1,152572,-3534,378,-2645,-134,-214,-91,151,179,-393
1,152578,-3534,378,-2645,-134,-214,-91,151,179,-393
1,152584,-3534,378,-2645,-134,-214,-91,151,179,-393
1,152589,-3534,378,-2645,-134,-214,-91,151,179,-393
1,152594,-3535,375,-2643,-139,-217,-94,151,179,-393
1,152600,-3535,375,-2643,-139,-217,-94,151,179,-393
1,152605,-3535,375,-2643,-139,-217,-94,151,179,-393
1,152611,-3537,377,-2641,-139,-219,-85,151,179,-393
1,152616,-3537,377,-2641,-139,-219,-85,151,179,-393
1,152623,-3537,377,-2641,-139,-219,-85,151,179,-393
1,152628,-3537,377,-2641,-139,-219,-85,151,179,-393
1,152633,-3534,376,-2644,-139,-216,-92,151,179,-393
1,152638,-3534,376,-2644,-139,-216,-92,151,179,-393
1,152644,-3534,376,-2644,-139,-216,-92,151,179,-393
1,152649,-3536,373,-2644,-141,-210,-102,151,179,-393
1,152655,-3536,373,-2644,-141,-210,-102,151,179,-393
1,152660,-3536,373,-2644,-141,-210,-102,151,179,-393
1,152667,-3536,373,-2644,-141,-210,-102,151,179,-393
1,152673,-3537,375,-2642,-138,-219,-95,152,186,-392
1,152678,-3537,375,-2642,-138,-219,-95,152,186,-392
1,152684,-3537,375,-2642,-138,-219,-95,152,186,-392
1,152689,-3537,375,-2642,-138,-219,-95,152,186,-392
1,152695,-3537,379,-2643,-140,-220,-92,152,186,-392
1,152700,-3537,379,-2643,-140,-220,-92,152,186,-392
1,152707,-3537,379,-2643,-140,-220,-92,152,186,-392
1,152713,-3533,379,-2637,-137,-222,-92,152,186,-392
1,152717,-3533,379,-2637,-137,-222,-92,152,186,-392
1,152723,-3533,379,-2637,-137,-222,-92,152,186,-392
1,152728,-3533,379,-2637,-137,-222,-92,152,186,-392
1,152734,-3535,378,-2645,-141,-215,-85,152,186,-392
1,152739,-3535,378,-2645,-141,-215,-85,152,186,-392
1,152744,-3535,378,-2645,-141,-215,-85,152,186,-392
1,152751,-3535,375,-2647,-140,-218,-94,152,186,-392
1,152757,-3535,375,-2647,-140,-218,-94,152,186,-392
1,152762,-3535,375,-2647,-140,-218,-94,152,186,-392
1,152768,-3535,375,-2647,-140,-218,-94,152,186,-392
1,152773,-3537,375,-2643,-139,-222,-99,152,186,-392
1,152779,-3537,375,-2643,-139,-222,-99,152,186,-392
1,152784,-3537,375,-2643,-139,-222,-99,152,186,-392
1,152790,-3537,378,-2640,-141,-221,-95,149,177,-393
1,152796,-3537,378,-2640,-141,-221,-95,149,177,-393
1,152801,-3537,378,-2640,-141,-221,-95,149,177,-393
1,152806,-3537,378,-2640,-141,-221,-95,149,177,-393
1,152812,-3535,377,-2641,-141,-222,-88,149,177,-393
1,152817,-3535,377,-2641,-141,-222,-88,149,177,-393
1,152822,-3535,377,-2641,-141,-222,-88,149,177,-393
1,152828,-3535,377,-2641,-141,-222,-88,149,177,-393
1,152834,-3531,376,-2637,-139,-224,-97,149,177,-393
1,152840,-3531,376,-2637,-139,-224,-97,149,177,-393
1,152845,-3531,376,-2637,-139,-224,-97,149,177,-393
1,152851,-3536,375,-2642,-143,-221,-94,149,177,-393
1,152856,-3536,375,-2642,-143,-221,-94,149,177,-393
1,152862,-3536,375,-2642,-143,-221,-94,149,177,-393
1,152868,-3536,375,-2642,-143,-221,-94,149,177,-393
1,152873,-3535,379,-2644,-144,-223,-95,149,177,-393
1,152880,-3535,379,-2644,-144,-223,-95,149,177,-393
1,152886,-3535,379,-2644,-144,-223,-95,149,177,-393
1,152891,-3537,376,-2644,-139,-221,-99,149,177,-393
1,152897,-3537,376,-2644,-139,-221,-99,149,177,-393
1,152902,-3537,376,-2644,-139,-221,-99,149,177,-393
1,152907,-3537,376,-2644,-139,-221,-99,149,177,-393
1,152912,-3536,377,-2642,-138,-221,-90,146,174,-392
1,152918,-3536,377,-2642,-138,-221,-90,146,174,-392
1,152923,-3536,377,-2642,-138,-221,-90,146,174,-392
1,152929,-3536,377,-2642,-138,-221,-90,146,174,-392
1,152935,-3536,377,-2642,-141,-218,-96,146,174,-392
1,152940,-3536,377,-2642,-141,-218,-96,146,174,-392
1,152945,-3536,377,-2642,-141,-218,-96,146,174,-392
1,152951,-3535,377,-2642,-138,-215,-90,146,174,-392
1,152956,-3535,377,-2642,-138,-215,-90,146,174,-392
1,152962,-3535,377,-2642,-138,-215,-90,146,174,-392
1,152967,-3535,377,-2642,-138,-215,-90,146,174,-392
1,152972,-3531,376,-2641,-138,-218,-99,146,174,-392
1,152978,-3531,376,-2641,-138,-218,-99,146,174,-392
1,152983,-3531,376,-2641,-138,-218,-99,146,174,-392
1,152989,-3531,376,-2641,-138,-218,-99,146,174,-392
1,152994,-3537,378,-2646,-140,-218,-94,146,174,-392
1,153000,-3537,378,-2646,-140,-218,-94,146,174,-392
1,153006,-3537,378,-2646,-140,-218,-94,146,174,-392
1,153012,-3533,378,-2646,-147,-213,-95,146,174,-392
1,153017,-3533,378,-2646,-147,-213,-95,146,174,-392
1,153022,-3533,378,-2646,-147,-213,-95,146,174,-392
1,153028,-3533,378,-2646,-147,-213,-95,146,174,-392
1,153034,-3538,374,-2641,-144,-216,-94,146,174,-392
1,153040,-3538,374,-2641,-144,-216,-94,146,174,-392
1,153046,-3538,374,-2641,-144,-216,-94,146,174,-392
1,153052,-3537,378,-2639,-145,-224,-98,155,187,-395
1,153058,-3537,378,-2639,-145,-224,-98,155,187,-395
1,153062,-3537,378,-2639,-145,-224,-98,155,187,-395
1,153068,-3537,378,-2639,-145,-224,-98,155,187,-395
1,153073,-3538,380,-2640,-137,-216,-92,155,187,-395
1,153079,-3538,380,-2640,-137,-216,-92,155,187,-395
1,153084,-3538,380,-2640,-137,-216,-92,155,187,-395
1,153090,-3538,380,-2640,-137,-216,-92,155,187,-395
1,153097,-3538,380,-2640,-137,-216,-92,155,187,-395
1,153102,-3538,380,-2640,-137,-216,-92,155,187,-395
1,153107,-3538,380,-2640,-137,-216,-92,155,187,-395
1,153112,-3537,379,-2647,-142,-220,-97,155,187,-395
1,153118,-3537,379,-2647,-142,-220,-97,155,187,-395
1,153123,-3537,379,-2647,-142,-220,-97,155,187,-395
1,153129,-3537,379,-2647,-142,-220,-97,155,187,-395
1,153135,-3536,379,-2638,-143,-226,-95,155,187,-395
1,153140,-3536,379,-2638,-143,-226,-95,155,187,-395
1,153145,-3536,379,-2638,-143,-226,-95,155,187,-395
1,153151,-3535,378,-2647,-147,-229,-92,155,187,-395
1,153156,-3535,378,-2647,-147,-229,-92,155,187,-395
1,153161,-3535,378,-2647,-147,-229,-92,155,187,-395
1,153167,-3535,378,-2647,-147,-229,-92,155,187,-395
1,153172,-3536,376,-2638,-148,-221,-95,151,177,-397
1,153179,-3536,376,-2638,-148,-221,-95,151,177,-397
1,153185,-3536,376,-2638,-148,-221,-95,151,177,-397
1,153189,-3536,376,-2638,-148,-221,-95,151,177,-397
1,153195,-3539,376,-2645,-142,-219,-95,151,177,-397
1,153200,-3539,376,-2645,-142,-219,-95,151,177,-397
1,153205,-3539,376,-2645,-142,-219,-95,151,177,-397
1,153210,-3537,376,-2641,-142,-220,-90,151,177,-397
1,153216,-3537,376,-2641,-142,-220,-90,151,177,-397
1,153222,-3537,376,-2641,-142,-220,-90,151,177,-397
1,153228,-3537,376,-2641,-142,-220,-90,151,177,-397
1,153233,-3534,377,-2643,-145,-223,-90,151,177,-397
1,153238,-3534,377,-2643,-145,-223,-90,151,177,-397
1,153244,-3534,377,-2643,-145,-223,-90,151,177,-397
1,153249,-3534,377,-2643,-145,-223,-90,151,177,-397
1,153254,-3536,381,-2642,-134,-213,-85,151,177,-397
1,153260,-3536,381,-2642,-134,-213,-85,151,177,-397
1,153266,-3536,381,-2642,-134,-213,-85,151,177,-397
1,153272,-3540,379,-2643,-134,-218,-93,151,177,-397
1,153277,-3540,379,-2643,-134,-218,-93,151,177,-397
1,153283,-3540,379,-2643,-134,-218,-93,151,177,-397
1,153288,-3540,379,-2643,-134,-218,-93,151,177,-397
1,153294,-3534,375,-2638,-139,-216,-95,144,184,-384
1,153299,-3534,375,-2638,-139,-216,-95,144,184,-384
1,153305,-3534,375,-2638,-139,-216,-95,144,184,-384
1,153311,-3536,377,-2637,-140,-211,-96,144,184,-384
1,153316,-3536,377,-2637,-140,-211,-96,144,184,-384
1,153321,-3536,377,-2637,-140,-211,-96,144,184,-384
1,153327,-3536,377,-2637,-140,-211,-96,144,184,-384
1,153333,-3535,378,-2638,-145,-214,-96,144,184,-384
1,153338,-3535,378,-2638,-145,-214,-96,144,184,-384
1,153344,-3535,378,-2638,-145,-214,-96,144,184,-384
1,153349,-3535,378,-2638,-145,-214,-96,144,184,-384
1,153355,-3536,377,-2645,-136,-217,-88,144,184,-384
1,153360,-3536,377,-2645,-136,-217,-88,144,184,-384
1,153365,-3536,377,-2645,-136,-217,-88,144,184,-384
1,153371,-3538,380,-2640,-143,-215,-90,144,184,-384
1,153376,-3538,380,-2640,-143,-215,-90,144,184,-384
1,153382,-3538,380,-2640,-143,-215,-90,144,184,-384
1,153388,-3538,380,-2640,-143,-215,-90,144,184,-384
1,153393,-3536,375,-2642,-145,-223,-92,144,184,-384
1,153399,-3536,375,-2642,-145,-223,-92,144,184,-384
1,153404,-3536,375,-2642,-145,-223,-92,144,184,-384
1,153410,-3536,375,-2642,-145,-223,-92,144,184,-384
1,153415,-3534,377,-2638,-142,-216,-92,158,172,-396
1,153420,-3534,377,-2638,-142,-216,-92,158,172,-396
1,153426,-3534,377,-2638,-142,-216,-92,158,172,-396
1,153433,-3536,376,-2636,-138,-215,-89,158,172,-396
1,153438,-3536,376,-2636,-138,-215,-89,158,172,-396
1,153444,-3536,376,-2636,-138,-215,-89,158,172,-396
1,153449,-3536,376,-2636,-138,-215,-89,158,172,-396
1,153454,-3534,377,-2640,-141,-217,-90,158,172,-396
1,153460,-3534,377,-2640,-141,-217,-90,158,172,-396
1,153465,-3534,377,-2640,-141,-217,-90,158,172,-396
1,153472,-3535,376,-2640,-146,-220,-89,158,172,-396
1,153478,-3535,376,-2640,-146,-220,-89,158,172,-396
1,153483,-3535,376,-2640,-146,-220,-89,158,172,-396
1,153489,-3535,376,-2640,-146,-220,-89,158,172,-396
1,153495,-3537,379,-2641,-137,-212,-85,158,172,-396
1,153500,-3537,379,-2641,-137,-212,-85,158,172,-396
1,153505,-3537,379,-2641,-137,-212,-85,158,172,-396
1,153511,-3534,378,-2642,-137,-216,-95,158,172,-396
1,153517,-3534,378,-2642,-137,-216,-95,158,172,-396
1,153522,-3534,378,-2642,-137,-216,-95,158,172,-396
1,153527,-3534,378,-2642,-137,-216,-95,158,172,-396
1,153533,-3535,376,-2643,-136,-214,-89,152,180,-394
1,153538,-3535,376,-2643,-136,-214,-89,152,180,-394
1,153544,-3535,376,-2643,-136,-214,-89,152,180,-394
1,153549,-3535,376,-2643,-136,-214,-89,152,180,-394
1,153555,-3537,377,-2636,-132,-212,-94,152,180,-394
1,153561,-3537,377,-2636,-132,-212,-94,152,180,-394
1,153567,-3537,377,-2636,-132,-212,-94,152,180,-394
1,153572,-3537,377,-2641,-134,-222,-86,152,180,-394
1,153578,-3537,377,-2641,-134,-222,-86,152,180,-394
1,153583,-3537,377,-2641,-134,-222,-86,152,180,-394
1,153588,-3537,377,-2641,-134,-222,-86,152,180,-394
1,153594,-3532,377,-2644,-139,-215,-90,152,180,-394
1,153600,-3532,377,-2644,-139,-215,-90,152,180,-394
1,153606,-3532,377,-2644,-139,-215,-90,152,180,-394
1,153612,-3532,377,-2646,-142,-218,-88,152,180,-394
1,153617,-3532,377,-2646,-142,-218,-88,152,180,-394
1,153623,-3532,377,-2646,-142,-218,-88,152,180,-394
1,153628,-3532,377,-2646,-142,-218,-88,152,180,-394
1,153634,-3535,381,-2644,-137,-217,-98,152,180,-394
1,153639,-3535,381,-2644,-137,-217,-98,152,180,-394
1,153646,-3535,381,-2644,-137,-217,-98,152,180,-394
1,153651,-3535,377,-2640,-145,-218,-98,152,180,-394
1,153656,-3535,377,-2640,-145,-218,-98,153,175,-399
1,153662,-3535,377,-2640,-145,-218,-98,153,175,-399
1,153667,-3535,377,-2640,-145,-218,-98,153,175,-399
1,153673,-3535,378,-2640,-141,-216,-93,153,175,-399
1,153678,-3535,378,-2640,-141,-216,-93,153,175,-399
1,153684,-3535,378,-2640,-141,-216,-93,153,175,-399
1,153690,-3535,378,-2640,-141,-216,-93,153,175,-399
1,153696,-3535,377,-2640,-138,-221,-93,153,175,-399
1,153701,-3535,377,-2640,-138,-221,-93,153,175,-399
1,153706,-3535,377,-2640,-138,-221,-93,153,175,-399
1,153712,-3539,376,-2641,-141,-218,-96,153,175,-399
1,153717,-3539,376,-2641,-141,-218,-96,153,175,-399
1,153723,-3539,376,-2641,-141,-218,-96,153,175,-399
1,153729,-3539,376,-2641,-141,-218,-96,153,175,-399
1,153734,-3536,376,-2644,-139,-215,-93,153,175,-399
1,153740,-3536,376,-2644,-139,-215,-93,153,175,-399
1,153745,-3536,376,-2644,-139,-215,-93,153,175,-399
1,153750,-3536,376,-2644,-139,-215,-93,153,175,-399
1,153756,-3535,378,-2646,-144,-223,-95,153,175,-399
1,153761,-3535,378,-2646,-144,-223,-95,153,175,-399
1,153767,-3535,378,-2646,-144,-223,-95,153,175,-399
1,153773,-3534,377,-2646,-146,-228,-92,153,175,-399
1,153779,-3534,377,-2646,-146,-228,-92,153,175,-399
1,153784,-3534,377,-2646,-146,-228,-92,153,175,-399
1,153789,-3534,377,-2646,-146,-228,-92,153,175,-399
1,153794,-3534,374,-2635,-148,-224,-94,157,181,-395
1,153800,-3534,374,-2635,-148,-224,-94,157,181,-395
1,153805,-3534,374,-2635,-148,-224,-94,157,181,-395
1,153811,-3534,377,-2644,-146,-215,-96,157,181,-395
1,153817,-3534,377,-2644,-146,-215,-96,157,181,-395
1,153822,-3534,377,-2644,-146,-215,-96,157,181,-395
1,153828,-3534,377,-2644,-146,-215,-96,157,181,-395
1,153833,-3537,378,-2640,-143,-219,-94,157,181,-395
1,153839,-3537,378,-2640,-143,-219,-94,157,181,-395
1,153844,-3537,378,-2640,-143,-219,-94,157,181,-395
1,153850,-3537,378,-2640,-143,-219,-94,157,181,-395
1,153856,-3538,375,-2642,-137,-219,-87,157,181,-395
1,153862,-3538,375,-2642,-137,-219,-87,157,181,-395
1,153867,-3538,375,-2642,-137,-219,-87,157,181,-395
1,153872,-3536,376,-2646,-140,-216,-91,157,181,-395
1,153877,-3536,376,-2646,-140,-216,-91,157,181,-395
1,153883,-3536,376,-2646,-140,-216,-91,157,181,-395
1,153888,-3536,376,-2646,-140,-216,-91,157,181,-395
1,153893,-3536,377,-2641,-138,-219,-94,157,181,-395
1,153899,-3536,377,-2641,-138,-219,-94,157,181,-395
1,153905,-3536,377,-2641,-138,-219,-94,157,181,-395
1,153910,-3536,377,-2641,-138,-219,-94,157,181,-395
1,153916,-3536,377,-2642,-145,-217,-96,150,176,-392
1,153921,-3536,377,-2642,-145,-217,-96,150,176,-392
1,153926,-3536,377,-2642,-145,-217,-96,150,176,-392
1,153931,-3536,376,-2644,-145,-213,-96,150,176,-392
1,153937,-3536,376,-2644,-145,-213,-96,150,176,-392
1,153943,-3536,376,-2644,-145,-213,-96,150,176,-392
1,153948,-3536,376,-2644,-145,-213,-96,150,176,-392
1,153954,-3535,378,-2643,-148,-221,-90,150,176,-392
1,153959,-3535,378,-2643,-148,-221,-90,150,176,-392
1,153965,-3535,378,-2643,-148,-221,-90,150,176,-392
1,153970,-3535,378,-2643,-148,-221,-90,150,176,-392
1,153975,-3535,378,-2643,-148,-221,-90,150,176,-392
1,153981,-3535,378,-2643,-148,-221,-90,150,176,-392
1,153987,-3535,378,-2643,-148,-221,-90,150,176,-392
1,153992,-3536,378,-2645,-137,-221,-99,150,176,-392
1,153998,-3536,378,-2645,-137,-221,-99,150,176,-392
1,154003,-3536,378,-2645,-137,-221,-99,150,176,-392
1,154008,-3536,378,-2645,-137,-221,-99,150,176,-392
1,154014,-3540,378,-2642,-137,-221,-96,150,176,-392
1,154019,-3540,378,-2642,-137,-221,-96,150,176,-392
1,154025,-3540,378,-2642,-137,-221,-96,150,176,-392
1,154031,-3540,378,-2642,-137,-221,-96,150,176,-392
1,154036,-3539,378,-2639,-145,-217,-95,155,179,-395
1,154042,-3539,378,-2639,-145,-217,-95,155,179,-395
1,154048,-3539,378,-2639,-145,-217,-95,155,179,-395
1,154053,-3539,378,-2639,-145,-217,-95,155,179,-395
1,154058,-3539,378,-2639,-145,-217,-95,155,179,-395
1,154063,-3539,378,-2639,-145,-217,-95,155,179,-395
1,154070,-3539,378,-2639,-145,-217,-95,155,179,-395
1,154075,-3534,377,-2640,-140,-213,-90,155,179,-395
1,154080,-3534,377,-2640,-140,-213,-90,155,179,-395
1,154085,-3534,377,-2640,-140,-213,-90,155,179,-395
1,154090,-3534,377,-2640,-140,-213,-90,155,179,-395
1,154096,-3535,374,-2643,-138,-226,-92,155,179,-395
1,154101,-3535,374,-2643,-138,-226,-92,155,179,-395
1,154107,-3535,374,-2643,-138,-226,-92,155,179,-395
1,154113,-3535,377,-2644,-144,-221,-90,155,179,-395
1,154119,-3535,377,-2644,-144,-221,-90,155,179,-395
1,154124,-3535,377,-2644,-144,-221,-90,155,179,-395
1,154129,-3535,377,-2644,-144,-221,-90,155,179,-395
1,154134,-3536,377,-2639,-149,-221,-101,155,179,-395
1,154140,-3536,377,-2639,-149,-221,-101,155,179,-395
1,154145,-3536,377,-2639,-149,-221,-101,155,179,-395
1,154152,-3536,378,-2639,-143,-219,-92,158,178,-388
1,154160,-3536,378,-2639,-143,-219,-92,158,178,-388
1,154168,-3536,378,-2639,-143,-219,-92,158,178,-388
1,154175,-3532,375,-2639,-146,-215,-90,158,178,-388
1,154180,-3532,375,-2639,-146,-215,-90,158,178,-388
1,154185,-3532,375,-2639,-146,-215,-90,158,178,-388
1,154190,-3532,375,-2639,-146,-215,-90,158,178,-388
1,154196,-3533,373,-2646,-137,-219,-86,158,178,-388
1,154202,-3533,373,-2646,-137,-219,-86,158,178,-388
1,154208,-3533,373,-2646,-137,-219,-86,158,178,-388
1,154213,-3536,372,-2640,-141,-228,-96,158,178,-388
1,154218,-3536,372,-2640,-141,-228,-96,158,178,-388
1,154224,-3536,372,-2640,-141,-228,-96,158,178,-388
1,154229,-3536,372,-2640,-141,-228,-96,158,178,-388
1,154234,-3536,379,-2642,-144,-220,-93,158,178,-388
1,154241,-3536,379,-2642,-144,-220,-93,158,178,-388
1,154246,-3536,379,-2642,-144,-220,-93,158,178,-388
1,154251,-3537,376,-2644,-140,-217,-95,158,178,-388
1,154256,-3537,376,-2644,-140,-217,-95,158,178,-388
1,154262,-3537,376,-2644,-140,-217,-95,158,178,-388
1,154267,-3537,376,-2644,-140,-217,-95,158,178,-388
1,154273,-3533,378,-2645,-133,-215,-101,150,174,-388
1,154278,-3533,378,-2645,-133,-215,-101,150,174,-388
1,154285,-3533,378,-2645,-133,-215,-101,150,174,-388
1,154290,-3533,378,-2645,-133,-215,-101,150,174,-388
1,154295,-3533,378,-2646,-140,-224,-94,150,174,-388
1,154301,-3533,378,-2646,-140,-224,-94,150,174,-388
1,154307,-3533,378,-2646,-140,-224,-94,150,174,-388
1,154312,-3534,376,-2645,-141,-216,-99,150,174,-388
1,154317,-3534,376,-2645,-141,-216,-99,150,174,-388
1,154323,-3534,376,-2645,-141,-216,-99,150,174,-388
1,154329,-3534,376,-2645,-141,-216,-99,150,174,-388
1,154334,-3536,377,-2643,-138,-219,-93,150,174,-388
1,154339,-3536,377,-2643,-138,-219,-93,150,174,-388
1,154345,-3536,377,-2643,-138,-219,-93,150,174,-388
1,154350,-3536,377,-2643,-138,-219,-93,150,174,-388
1,154355,-3537,379,-2641,-147,-219,-96,150,174,-388
1,154361,-3537,379,-2641,-147,-219,-96,150,174,-388
1,154366,-3537,379,-2641,-147,-219,-96,150,174,-388
1,154373,-3538,376,-2643,-144,-212,-95,150,174,-388
1,154378,-3538,376,-2643,-144,-212,-95,150,174,-388
1,154383,-3538,376,-2643,-144,-212,-95,150,174,-388
1,154388,-3538,376,-2643,-144,-212,-95,150,174,-388
1,154394,-3539,379,-2644,-138,-218,-101,150,174,-388
1,154399,-3539,379,-2644,-138,-218,-101,150,174,-388
1,154404,-3539,379,-2644,-138,-218,-101,150,174,-388
1,154409,-3539,379,-2644,-138,-218,-101,150,174,-388
1,154415,-3538,375,-2639,-141,-220,-85,154,170,-398
1,154421,-3538,375,-2639,-141,-220,-85,154,170,-398
1,154427,-3538,375,-2639,-141,-220,-85,154,170,-398
1,154432,-3539,378,-2641,-143,-223,-94,154,170,-398
1,154437,-3539,378,-2641,-143,-223,-94,154,170,-398
1,154442,-3539,378,-2641,-143,-223,-94,154,170,-398
1,154448,-3539,378,-2641,-143,-223,-94,154,170,-398
1,154454,-3536,377,-2643,-140,-216,-94,154,170,-398
1,154460,-3536,377,-2643,-140,-216,-94,154,170,-398
1,154466,-3536,377,-2643,-140,-216,-94,154,170,-398
1,154471,-3536,377,-2642,-142,-217,-90,154,170,-398
1,154477,-3536,377,-2642,-142,-217,-90,154,170,-398
1,154482,-3536,377,-2642,-142,-217,-90,154,170,-398
1,154488,-3536,377,-2642,-142,-217,-90,154,170,-398
1,154493,-3536,379,-2647,-135,-213,-92,154,170,-398
1,154500,-3536,379,-2647,-135,-213,-92,154,170,-398
1,154506,-3536,379,-2647,-135,-213,-92,154,170,-398
1,154511,-3536,379,-2647,-135,-213,-92,154,170,-398
1,154517,-3537,378,-2641,-140,-216,-93,154,170,-398
1,154522,-3537,378,-2641,-140,-216,-93,154,170,-398
1,154528,-3537,378,-2641,-140,-216,-93,154,170,-398
1,154533,-3538,374,-2639,-145,-221,-97,145,175,-397
1,154540,-3538,374,-2639,-145,-221,-97,145,175,-397
1,154545,-3538,374,-2639,-145,-221,-97,145,175,-397
1,154550,-3538,374,-2639,-145,-221,-97,145,175,-397
1,154556,-3536,378,-2643,-142,-219,-103,145,175,-397
1,154561,-3536,378,-2643,-142,-219,-103,145,175,-397
1,154567,-3536,378,-2643,-142,-219,-103,145,175,-397
1,154572,-3536,376,-2642,-140,-215,-88,145,175,-397
1,154577,-3536,376,-2642,-140,-215,-88,145,175,-397
1,154584,-3536,376,-2642,-140,-215,-88,145,175,-397
1,154589,-3536,376,-2642,-140,-215,-88,145,175,-397
1,154595,-3535,376,-2642,-135,-216,-92,145,175,-397
1,154600,-3535,376,-2642,-135,-216,-92,145,175,-397
1,154605,-3535,376,-2642,-135,-216,-92,145,175,-397
1,154611,-3534,375,-2639,-133,-214,-88,145,175,-397
1,154616,-3534,375,-2639,-133,-214,-88,145,175,-397
1,154622,-3534,375,-2639,-133,-214,-88,145,175,-397
1,154628,-3534,375,-2639,-133,-214,-88,145,175,-397
1,154634,-3533,377,-2643,-137,-214,-90,145,175,-397
1,154639,-3533,377,-2643,-137,-214,-90,145,175,-397
1,154645,-3533,377,-2643,-137,-214,-90,145,175,-397
1,154650,-3533,377,-2643,-137,-214,-90,145,175,-397
1,154656,-3536,375,-2640,-138,-219,-96,149,171,-393
1,154661,-3536,375,-2640,-138,-219,-96,149,171,-393
1,154667,-3536,375,-2640,-138,-219,-96,149,171,-393
1,154672,-3535,378,-2643,-128,-214,-94,149,171,-393
1,154678,-3535,378,-2643,-128,-214,-94,149,171,-393
1,154683,-3535,378,-2643,-128,-214,-94,149,171,-393
1,154688,-3535,378,-2643,-128,-214,-94,149,171,-393
1,154694,-3535,378,-2643,-128,-214,-94,149,171,-393
1,154699,-3535,378,-2643,-128,-214,-94,149,171,-393
1,154704,-3535,378,-2643,-128,-214,-94,149,171,-393
1,154710,-3535,378,-2643,-128,-214,-94,149,171,-393
1,154716,-3535,377,-2643,-137,-230,-90,149,171,-393
1,154721,-3535,377,-2643,-137,-230,-90,149,171,-393
1,154727,-3535,377,-2643,-137,-230,-90,149,171,-393
1,154732,-3535,378,-2646,-137,-220,-90,149,171,-393
1,154738,-3535,378,-2646,-137,-220,-90,149,171,-393
1,154743,-3535,378,-2646,-137,-220,-90,149,171,-393
1,154748,-3535,378,-2646,-137,-220,-90,149,171,-393
1,154755,-3536,378,-2646,-141,-220,-93,149,171,-393
1,154761,-3536,378,-2646,-141,-220,-93,149,171,-393
1,154766,-3536,378,-2646,-141,-220,-93,149,171,-393
1,154772,-3536,378,-2646,-141,-220,-93,149,181,-393
1,154777,-3536,378,-2646,-141,-220,-93,149,181,-393
1,154782,-3536,378,-2646,-141,-220,-93,149,181,-393
1,154788,-3536,378,-2646,-141,-220,-93,149,181,-393
1,154795,-3535,377,-2643,-140,-215,-93,149,181,-393
1,154800,-3535,377,-2643,-140,-215,-93,149,181,-393
1,154805,-3535,377,-2643,-140,-215,-93,149,181,-393
1,154811,-3535,377,-2643,-140,-215,-93,149,181,-393
1,154817,-3536,377,-2640,-133,-222,-95,149,181,-393
1,154822,-3536,377,-2640,-133,-222,-95,149,181,-393
1,154827,-3536,377,-2640,-133,-222,-95,149,181,-393
1,154833,-3537,374,-2639,-132,-227,-92,149,181,-393
1,154839,-3537,374,-2639,-132,-227,-92,149,181,-393
1,154845,-3537,374,-2639,-132,-227,-92,149,181,-393
1,154850,-3537,374,-2639,-132,-227,-92,149,181,-393
1,154855,-3538,377,-2644,-130,-224,-82,149,181,-393
1,154861,-3538,377,-2644,-130,-224,-82,149,181,-393
1,154866,-3538,377,-2644,-130,-224,-82,149,181,-393
1,154872,-3533,378,-2644,-133,-226,-88,149,181,-393
1,154878,-3533,378,-2644,-133,-226,-88,149,181,-393
1,154884,-3533,378,-2644,-133,-226,-88,149,181,-393
1,154890,-3533,378,-2644,-133,-226,-88,149,181,-393
1,154895,-3537,377,-2640,-140,-226,-100,158,182,-392
1,154900,-3537,377,-2640,-140,-226,-100,158,182,-392
1,154905,-3537,377,-2640,-140,-226,-100,158,182,-392
1,154911,-3537,377,-2640,-140,-226,-100,158,182,-392
1,154916,-3536,378,-2646,-141,-223,-97,158,182,-392
1,154923,-3536,378,-2646,-141,-223,-97,158,182,-392
1,154928,-3536,378,-2646,-141,-223,-97,158,182,-392
1,154933,-3536,377,-2643,-136,-219,-93,158,182,-392
1,154938,-3536,377,-2643,-136,-219,-93,158,182,-392
1,154943,-3536,377,-2643,-136,-219,-93,158,182,-392
1,154948,-3536,377,-2643,-136,-219,-93,158,182,-392
1,154954,-3537,376,-2645,-136,-225,-96,158,182,-392
1,154958,-3537,376,-2645,-136,-225,-96,158,182,-392
1,154964,-3537,376,-2645,-136,-225,-96,158,182,-392
1,154970,-3537,376,-2645,-136,-225,-96,158,182,-392
1,154975,-3536,377,-2644,-134,-215,-98,158,182,-392
1,154981,-3536,377,-2644,-134,-215,-98,158,182,-392
1,154986,-3536,377,-2644,-134,-215,-98,158,182,-392
1,154991,-3536,377,-2644,-134,-215,-98,158,182,-392
1,154996,-3534,376,-2642,-135,-219,-96,158,182,-392
1,155002,-3534,376,-2642,-135,-219,-96,158,182,-392
1,155006,-3534,376,-2642,-135,-219,-96,158,182,-392
1,155013,-3536,377,-2641,-140,-221,-93,147,179,-393
1,155018,-3536,377,-2641,-140,-221,-93,147,179,-393
1,155023,-3536,377,-2641,-140,-221,-93,147,179,-393
1,155029,-3536,377,-2641,-140,-221,-93,147,179,-393
1,155034,-3536,377,-2638,-144,-217,-91,147,179,-393
1,155040,-3536,377,-2638,-144,-217,-91,147,179,-393
1,155046,-3536,377,-2638,-144,-217,-91,147,179,-393
1,155052,-3536,377,-2638,-144,-217,-91,147,179,-393
1,155057,-3535,378,-2644,-140,-227,-93,147,179,-393
1,155063,-3535,378,-2644,-140,-227,-93,147,179,-393
1,155068,-3535,378,-2644,-140,-227,-93,147,179,-393
1,155074,-3535,379,-2643,-139,-228,-98,147,179,-393
1,155079,-3535,379,-2643,-139,-228,-98,147,179,-393
1,155085,-3535,379,-2643,-139,-228,-98,147,179,-393
1,155091,-3535,379,-2643,-139,-228,-98,147,179,-393
1,155097,-3532,377,-2643,-136,-218,-95,147,179,-393
1,155103,-3532,377,-2643,-136,-218,-95,147,179,-393
1,155108,-3532,377,-2643,-136,-218,-95,147,179,-393
1,155114,-3534,377,-2639,-150,-213,-93,147,179,-393
1,155119,-3534,377,-2639,-150,-213,-93,147,179,-393
1,155125,-3534,377,-2639,-150,-213,-93,147,179,-393
1,155129,-3534,377,-2639,-150,-213,-93,147,179,-393
1,155136,-3537,374,-2642,-145,-214,-92,147,179,-393
1,155141,-3537,374,-2642,-145,-214,-92,147,179,-393
1,155147,-3537,374,-2642,-145,-214,-92,147,179,-393
1,155153,-3535,376,-2643,-137,-224,-96,144,180,-396
1,155159,-3535,376,-2643,-137,-224,-96,144,180,-396
1,155164,-3535,376,-2643,-137,-224,-96,144,180,-396
1,155169,-3535,376,-2643,-137,-224,-96,144,180,-396
1,155175,-3534,378,-2641,-140,-218,-96,144,180,-396
1,155181,-3534,378,-2641,-140,-218,-96,144,180,-396
1,155186,-3534,378,-2641,-140,-218,-96,144,180,-396
1,155192,-3534,378,-2641,-140,-218,-96,144,180,-396
1,155197,-3530,376,-2641,-143,-217,-93,144,180,-396
1,155202,-3530,376,-2641,-143,-217,-93,144,180,-396
1,155208,-3530,376,-2641,-143,-217,-93,144,180,-396
1,155213,-3538,376,-2637,-143,-217,-101,144,180,-396
1,155218,-3538,376,-2637,-143,-217,-101,144,180,-396
1,155225,-3538,376,-2637,-143,-217,-101,144,180,-396
1,155230,-3538,376,-2637,-143,-217,-101,144,180,-396
1,155235,-3538,376,-2650,-150,-220,-97,144,180,-396
1,155241,-3538,376,-2650,-150,-220,-97,144,180,-396
1,155246,-3538,376,-2650,-150,-220,-97,144,180,-396
1,155252,-3538,376,-2650,-150,-220,-97,144,180,-396
1,155257,-3536,380,-2641,-138,-218,-95,144,180,-396
1,155262,-3536,380,-2641,-138,-218,-95,144,180,-396
1,155268,-3536,380,-2641,-138,-218,-95,144,180,-396
1,155273,-3536,381,-2640,-133,-217,-88,150,174,-398
1,155279,-3536,381,-2640,-133,-217,-88,150,174,-398
1,155284,-3536,381,-2640,-133,-217,-88,150,174,-398
1,155290,-3536,381,-2640,-133,-217,-88,150,174,-398
1,155295,-3536,378,-2643,-135,-223,-93,150,174,-398
1,155300,-3536,378,-2643,-135,-223,-93,150,174,-398
1,155307,-3536,378,-2643,-135,-223,-93,150,174,-398
1,155312,-3536,378,-2643,-135,-223,-93,150,174,-398
1,155318,-3534,375,-2646,-143,-222,-89,150,174,-398
1,155323,-3534,375,-2646,-143,-222,-89,150,174,-398
1,155329,-3534,375,-2646,-143,-222,-89,150,174,-398
1,155334,-3535,380,-2645,-139,-220,-94,150,174,-398
1,155340,-3535,380,-2645,-139,-220,-94,150,174,-398
1,155345,-3535,380,-2645,-139,-220,-94,150,174,-398
1,155351,-3535,380,-2645,-139,-220,-94,150,174,-398
1,155356,-3537,373,-2642,-134,-228,-92,150,174,-398
1,155362,-3537,373,-2642,-134,-228,-92,150,174,-398
1,155367,-3537,373,-2642,-134,-228,-92,150,174,-398
1,155372,-3534,377,-2645,-137,-221,-95,150,174,-398
1,155377,-3534,377,-2645,-137,-221,-95,150,174,-398
1,155383,-3534,377,-2645,-137,-221,-95,150,174,-398
1,155388,-3534,377,-2645,-137,-221,-95,150,174,-398
1,155395,-3535,375,-2641,-134,-221,-95,147,179,-397
1,155400,-3535,375,-2641,-134,-221,-95,147,179,-397
1,155405,-3535,375,-2641,-134,-221,-95,147,179,-397
1,155410,-3535,375,-2641,-134,-221,-95,147,179,-397
1,155416,-3539,378,-2644,-141,-212,-99,147,179,-397
1,155421,-3539,378,-2644,-141,-212,-99,147,179,-397
1,155427,-3539,378,-2644,-141,-212,-99,147,179,-397
1,155432,-3535,376,-2638,-140,-213,-92,147,179,-397
1,155438,-3535,376,-2638,-140,-213,-92,147,179,-397
1,155444,-3535,376,-2638,-140,-213,-92,147,179,-397
1,155449,-3535,376,-2638,-140,-213,-92,147,179,-397
1,155454,-3535,376,-2638,-140,-213,-92,147,179,-397
1,155461,-3535,376,-2638,-140,-213,-92,147,179,-397
1,155466,-3535,376,-2638,-140,-213,-92,147,179,-397
1,155471,-3535,376,-2638,-140,-213,-92,147,179,-397
1,155478,-3533,378,-2642,-141,-221,-91,147,179,-397
1,155483,-3533,378,-2642,-141,-221,-91,147,179,-397
1,155488,-3533,378,-2642,-141,-221,-91,147,179,-397
1,155494,-3540,377,-2638,-133,-219,-89,147,179,-397
1,155499,-3540,377,-2638,-133,-219,-89,147,179,-397
1,155504,-3540,377,-2638,-133,-219,-89,147,179,-397
1,155509,-3540,377,-2638,-133,-219,-89,147,179,-397
1,155515,-3538,376,-2638,-134,-221,-84,154,172,-396
1,155521,-3538,376,-2638,-134,-221,-84,154,172,-396
1,155526,-3538,376,-2638,-134,-221,-84,154,172,-396
1,155531,-3538,376,-2638,-134,-221,-84,154,172,-396
1,155536,-3539,379,-2641,-135,-221,-84,154,172,-396
1,155542,-3539,379,-2641,-135,-221,-84,154,172,-396
1,155547,-3539,379,-2641,-135,-221,-84,154,172,-396
1,155553,-3535,377,-2641,-135,-218,-86,154,172,-396
1,155558,-3535,377,-2641,-135,-218,-86,154,172,-396
1,155564,-3535,377,-2641,-135,-218,-86,154,172,-396
1,155569,-3535,377,-2641,-135,-218,-86,154,172,-396
1,155574,-3534,375,-2651,-148,-226,-94,154,172,-396
1,155580,-3534,375,-2651,-148,-226,-94,154,172,-396
1,155585,-3534,375,-2651,-148,-226,-94,154,172,-396
1,155590,-3534,375,-2651,-148,-226,-94,154,172,-396
1,155596,-3535,376,-2643,-142,-224,-96,154,172,-396
1,155601,-3535,376,-2643,-142,-224,-96,154,172,-396
1,155607,-3535,376,-2643,-142,-224,-96,154,172,-396
1,155613,-3535,376,-2643,-142,-224,-96,154,172,-396
1,155618,-3535,377,-2644,-142,-215,-93,154,172,-396
1,155624,-3535,377,-2644,-142,-215,-93,154,172,-396
1,155629,-3535,377,-2644,-142,-215,-93,154,172,-396
1,155634,-3534,380,-2643,-144,-214,-93,147,177,-399
1,155639,-3534,380,-2643,-144,-214,-93,147,177,-399
1,155645,-3534,380,-2643,-144,-214,-93,147,177,-399
1,155651,-3534,380,-2643,-144,-214,-93,147,177,-399
1,155656,-3537,379,-2640,-142,-227,-98,147,177,-399
1,155662,-3537,379,-2640,-142,-227,-98,147,177,-399
1,155668,-3537,379,-2640,-142,-227,-98,147,177,-399
1,155674,-3535,377,-2641,-134,-227,-95,147,177,-399
1,155679,-3535,377,-2641,-134,-227,-95,147,177,-399
1,155685,-3535,377,-2641,-134,-227,-95,147,177,-399
1,155691,-3535,377,-2641,-134,-227,-95,147,177,-399
1,155696,-3536,378,-2643,-137,-216,-96,147,177,-399
1,155701,-3536,378,-2643,-137,-216,-96,147,177,-399
1,155707,-3536,378,-2643,-137,-216,-96,147,177,-399
1,155712,-3536,378,-2643,-137,-216,-96,147,177,-399
1,155718,-3537,379,-2639,-138,-216,-95,147,177,-399
1,155723,-3537,379,-2639,-138,-216,-95,147,177,-399
1,155728,-3537,379,-2639,-138,-216,-95,147,177,-399
1,155735,-3539,376,-2643,-136,-217,-89,147,177,-399
1,155740,-3539,376,-2643,-136,-217,-89,147,177,-399
1,155746,-3539,376,-2643,-136,-217,-89,147,177,-399
1,155751,-3539,376,-2643,-136,-217,-89,147,177,-399
1,155757,-3533,377,-2640,-139,-212,-88,147,177,-399
1,155762,-3533,377,-2640,-139,-212,-88,147,177,-399
1,155768,-3533,377,-2640,-139,-212,-88,147,177,-399
1,155773,-3537,377,-2643,-137,-212,-97,154,174,-398
1,155779,-3537,377,-2643,-137,-212,-97,154,174,-398
1,155784,-3537,377,-2643,-137,-212,-97,154,174,-398
1,155789,-3537,377,-2643,-137,-212,-97,154,174,-398
1,155795,-3537,377,-2642,-136,-217,-97,154,174,-398
1,155800,-3537,377,-2642,-136,-217,-97,154,174,-398
1,155805,-3537,377,-2642,-136,-217,-97,154,174,-398
1,155811,-3537,377,-2642,-136,-217,-97,154,174,-398
1,155816,-3534,376,-2646,-139,-230,-98,154,174,-398
1,155823,-3534,376,-2646,-139,-230,-98,154,174,-398
1,155828,-3534,376,-2646,-139,-230,-98,154,174,-398
1,155833,-3534,374,-2642,-142,-222,-97,154,174,-398
1,155838,-3534,374,-2642,-142,-222,-97,154,174,-398
1,155844,-3534,374,-2642,-142,-222,-97,154,174,-398
1,155849,-3534,374,-2642,-142,-222,-97,154,174,-398
1,155855,-3536,376,-2639,-139,-217,-88,154,174,-398
1,155860,-3536,376,-2639,-139,-217,-88,154,174,-398
1,155866,-3536,376,-2639,-139,-217,-88,154,174,-398
1,155872,-3536,376,-2639,-139,-217,-88,154,174,-398
1,155878,-3535,377,-2642,-140,-209,-88,154,174,-398
1,155883,-3535,377,-2642,-140,-209,-88,154,174,-398
1,155889,-3535,377,-2642,-140,-209,-88,154,174,-398
1,155894,-3536,376,-2637,-144,-214,-90,155,185,-391
1,155899,-3536,376,-2637,-144,-214,-90,155,185,-391
1,155906,-3536,376,-2637,-144,-214,-90,155,185,-391
1,155911,-3536,376,-2637,-144,-214,-90,155,185,-391
1,155917,-3537,377,-2640,-139,-220,-88,155,185,-391
1,155923,-3537,377,-2640,-139,-220,-88,155,185,-391
1,155928,-3537,377,-2640,-139,-220,-88,155,185,-391
1,155934,-3535,378,-2640,-136,-218,-84,155,185,-391
1,155939,-3535,378,-2640,-136,-218,-84,155,185,-391
1,155945,-3535,378,-2640,-136,-218,-84,155,185,-391
1,155951,-3535,378,-2640,-136,-218,-84,155,185,-391
1,155956,-3538,374,-2645,-131,-215,-93,155,185,-391
1,155962,-3538,374,-2645,-131,-215,-93,155,185,-391
1,155967,-3538,374,-2645,-131,-215,-93,155,185,-391
1,155972,-3538,374,-2645,-131,-215,-93,155,185,-391
1,155978,-3535,376,-2639,-144,-214,-92,155,185,-391
1,155983,-3535,376,-2639,-144,-214,-92,155,185,-391
1,155988,-3535,376,-2639,-144,-214,-92,155,185,-391
1,155994,-3538,376,-2641,-142,-224,-90,155,185,-391
1,156000,-3538,376,-2641,-142,-224,-90,155,185,-391
1,156005,-3538,376,-2641,-142,-224,-90,155,185,-391
1,156011,-3538,376,-2641,-142,-224,-90,155,185,-391
1,156016,-3537,379,-2640,-142,-227,-95,150,180,-396
1,156022,-3537,379,-2640,-142,-227,-95,150,180,-396
1,156027,-3537,379,-2640,-142,-227,-95,150,180,-396
1,156034,-3534,380,-2642,-139,-219,-92,150,180,-396
1,156039,-3534,380,-2642,-139,-219,-92,150,180,-396
1,156045,-3534,380,-2642,-139,-219,-92,150,180,-396
1,156051,-3534,380,-2642,-139,-219,-92,150,180,-396
1,156056,-3535,377,-2638,-139,-224,-95,150,180,-396
1,156061,-3535,377,-2638,-139,-224,-95,150,180,-396
1,156067,-3535,377,-2638,-139,-224,-95,150,180,-396
1,156072,-3535,377,-2638,-139,-224,-95,150,180,-396
1,156078,-3536,375,-2642,-148,-227,-97,150,180,-396
1,156085,-3536,375,-2642,-148,-227,-97,150,180,-396
1,156090,-3536,375,-2642,-148,-227,-97,150,180,-396
1,156096,-3536,375,-2639,-139,-220,-96,150,180,-396
1,156102,-3536,375,-2639,-139,-220,-96,150,180,-396
1,156107,-3536,375,-2639,-139,-220,-96,150,180,-396
1,156112,-3537,375,-2638,-137,-228,-92,150,180,-396
1,156119,-3537,375,-2638,-137,-228,-92,150,180,-396
1,156124,-3537,375,-2638,-137,-228,-92,150,180,-396
1,156129,-3537,375,-2638,-137,-228,-92,150,180,-396
1,156135,-3535,378,-2635,-134,-218,-88,159,183,-391
1,156141,-3535,378,-2635,-134,-218,-88,159,183,-391
1,156146,-3535,378,-2635,-134,-218,-88,159,183,-391
1,156151,-3535,378,-2635,-134,-218,-88,159,183,-391
1,156156,-3536,375,-2640,-144,-222,-94,159,183,-391
1,156163,-3536,375,-2640,-144,-222,-94,159,183,-391
1,156168,-3536,375,-2640,-144,-222,-94,159,183,-391
1,156174,-3537,378,-2644,-139,-209,-92,159,183,-391
1,156180,-3537,378,-2644,-139,-209,-92,159,183,-391
1,156185,-3537,378,-2644,-139,-209,-92,159,183,-391
1,156191,-3537,378,-2644,-139,-209,-92,159,183,-391
1,156196,-3537,379,-2641,-139,-213,-91,159,183,-391
1,156203,-3537,379,-2641,-139,-213,-91,159,183,-391
1,156208,-3537,379,-2641,-139,-213,-91,159,183,-391
1,156213,-3537,379,-2641,-139,-213,-91,159,183,-391
1,156219,-3535,377,-2643,-140,-225,-93,159,183,-391
1,156224,-3535,377,-2643,-140,-225,-93,159,183,-391
1,156229,-3535,377,-2643,-140,-225,-93,159,183,-391
1,156235,-3536,375,-2644,-144,-217,-94,159,183,-391
1,156240,-3536,375,-2644,-144,-217,-94,159,183,-391
1,156247,-3536,375,-2644,-144,-217,-94,159,183,-391
1,156252,-3536,375,-2644,-144,-217,-94,159,183,-391
1,156258,-3536,378,-2642,-141,-220,-90,152,168,-392
1,156263,-3536,378,-2642,-141,-220,-90,152,168,-392
1,156269,-3536,378,-2642,-141,-220,-90,152,168,-392
1,156274,-3536,379,-2636,-137,-221,-92,152,168,-392
1,156280,-3536,379,-2636,-137,-221,-92,152,168,-392
1,156285,-3536,379,-2636,-137,-221,-92,152,168,-392
1,156291,-3536,379,-2636,-137,-221,-92,152,168,-392
1,156297,-3535,377,-2642,-134,-220,-96,152,168,-392
1,156302,-3535,377,-2642,-134,-220,-96,152,168,-392
1,156307,-3535,377,-2642,-134,-220,-96,152,168,-392
1,156313,-3535,377,-2642,-134,-220,-96,152,168,-392
1,156318,-3536,376,-2643,-136,-215,-98,152,168,-392
1,156324,-3536,376,-2643,-136,-215,-98,152,168,-392
1,156329,-3536,376,-2643,-136,-215,-98,152,168,-392
1,156335,-3535,378,-2646,-134,-215,-95,152,168,-392
1,156341,-3535,378,-2646,-134,-215,-95,152,168,-392
1,156346,-3535,378,-2646,-134,-215,-95,152,168,-392
1,156351,-3535,378,-2646,-134,-215,-95,152,168,-392
1,156356,-3534,379,-2640,-141,-226,-97,152,168,-392
1,156362,-3534,379,-2640,-141,-226,-97,152,168,-392
1,156367,-3534,379,-2640,-141,-226,-97,152,168,-392
1,156372,-3534,379,-2640,-141,-226,-97,152,168,-392
1,156379,-3540,378,-2644,-133,-227,-99,154,176,-402
1,156384,-3540,378,-2644,-133,-227,-99,154,176,-402
1,156390,-3540,378,-2644,-133,-227,-99,154,176,-402
1,156395,-3538,378,-2638,-131,-224,-92,154,176,-402
1,156401,-3538,378,-2638,-131,-224,-92,154,176,-402
1,156406,-3538,378,-2638,-131,-224,-92,154,176,-402
1,156412,-3538,378,-2638,-131,-224,-92,154,176,-402
1,156418,-3535,379,-2645,-136,-222,-95,154,176,-402
1,156424,-3535,379,-2645,-136,-222,-95,154,176,-402
1,156429,-3535,379,-2645,-136,-222,-95,154,176,-402
1,156435,-3536,374,-2645,-144,-219,-92,154,176,-402
1,156440,-3536,374,-2645,-144,-219,-92,154,176,-402
1,156445,-3536,374,-2645,-144,-219,-92,154,176,-402
1,156450,-3536,374,-2645,-144,-219,-92,154,176,-402
1,156456,-3534,376,-2643,-136,-227,-90,154,176,-402
1,156462,-3534,376,-2643,-136,-227,-90,154,176,-402
1,156468,-3534,376,-2643,-136,-227,-90,154,176,-402
1,156473,-3534,376,-2643,-136,-227,-90,154,176,-402
1,156478,-3538,377,-2641,-136,-218,-89,154,176,-402
1,156484,-3538,377,-2641,-136,-218,-89,154,176,-402
1,156489,-3538,377,-2641,-136,-218,-89,154,176,-402
1,156495,-3537,379,-2643,-135,-220,-90,154,176,-402
1,156500,-3537,379,-2643,-135,-220,-90,154,176,-402
1,156507,-3537,379,-2643,-135,-220,-90,154,176,-402
1,156513,-3537,379,-2643,-135,-220,-90,154,176,-402
1,156518,-3535,380,-2637,-137,-216,-97,149,183,-393
1,156523,-3535,380,-2637,-137,-216,-97,149,183,-393
1,156529,-3535,380,-2637,-137,-216,-97,149,183,-393
1,156535,-3538,377,-2642,-136,-213,-102,149,183,-393
1,156540,-3538,377,-2642,-136,-213,-102,149,183,-393
1,156547,-3538,377,-2642,-136,-213,-102,149,183,-393
1,156552,-3538,377,-2642,-136,-213,-102,149,183,-393
1,156557,-3536,379,-2644,-143,-221,-102,149,183,-393
1,156563,-3536,379,-2644,-143,-221,-102,149,183,-393
1,156568,-3536,379,-2644,-143,-221,-102,149,183,-393
1,156574,-3534,376,-2646,-139,-219,-94,149,183,-393
1,156579,-3534,376,-2646,-139,-219,-94,149,183,-393
1,156584,-3534,376,-2646,-139,-219,-94,149,183,-393
1,156591,-3534,376,-2646,-139,-219,-94,149,183,-393
1,156596,-3535,377,-2643,-130,-220,-87,149,183,-393
1,156601,-3535,377,-2643,-130,-220,-87,149,183,-393
1,156607,-3535,377,-2643,-130,-220,-87,149,183,-393
1,156613,-3535,377,-2643,-130,-220,-87,149,183,-393
1,156617,-3535,377,-2643,-144,-227,-94,149,183,-393
1,156623,-3535,377,-2643,-144,-227,-94,149,183,-393
1,156628,-3535,377,-2643,-144,-227,-94,149,183,-393
1,156634,-3535,377,-2637,-132,-229,-90,149,177,-387
1,156640,-3535,377,-2637,-132,-229,-90,149,177,-387
1,156645,-3535,377,-2637,-132,-229,-90,149,177,-387
1,156651,-3535,377,-2637,-132,-229,-90,149,177,-387
1,156656,-3536,377,-2645,-130,-225,-96,149,177,-387
1,156662,-3536,377,-2645,-130,-225,-96,149,177,-387
1,156667,-3536,377,-2645,-130,-225,-96,149,177,-387
1,156673,-3536,377,-2645,-130,-225,-96,149,177,-387
1,156679,-3535,377,-2644,-135,-217,-91,149,177,-387
1,156684,-3535,377,-2644,-135,-217,-91,149,177,-387
1,156690,-3535,377,-2644,-135,-217,-91,149,177,-387
1,156696,-3538,374,-2646,-137,-219,-96,149,177,-387
1,156701,-3538,374,-2646,-137,-219,-96,149,177,-387
1,156706,-3538,374,-2646,-137,-219,-96,149,177,-387
1,156711,-3538,374,-2646,-137,-219,-96,149,177,-387
1,156717,-3536,376,-2642,-140,-226,-94,149,177,-387
1,156723,-3536,376,-2642,-140,-226,-94,149,177,-387
1,156728,-3536,376,-2642,-140,-226,-94,149,177,-387
1,156733,-3536,376,-2642,-140,-226,-94,149,177,-387
1,156738,-3538,378,-2646,-144,-217,-94,149,177,-387
1,156744,-3538,378,-2646,-144,-217,-94,149,177,-387
1,156749,-3538,378,-2646,-144,-217,-94,149,177,-387
1,156755,-3537,375,-2641,-139,-223,-92,154,186,-392
1,156761,-3537,375,-2641,-139,-223,-92,154,186,-392
1,156766,-3537,375,-2641,-139,-223,-92,154,186,-392
1,156772,-3537,375,-2641,-139,-223,-92,154,186,-392
1,156777,-3536,375,-2635,-142,-220,-89,154,186,-392
1,156782,-3536,375,-2635,-142,-220,-89,154,186,-392
1,156787,-3536,375,-2635,-142,-220,-89,154,186,-392
1,156793,-3536,375,-2635,-142,-220,-89,154,186,-392
1,156798,-3536,377,-2639,-140,-219,-86,154,186,-392
1,156804,-3536,377,-2639,-140,-219,-86,154,186,-392
1,156810,-3536,377,-2639,-140,-219,-86,154,186,-392
1,156816,-3537,375,-2641,-136,-224,-97,154,186,-392
1,156821,-3537,375,-2641,-136,-224,-97,154,186,-392
1,156826,-3537,375,-2641,-136,-224,-97,154,186,-392
1,156831,-3537,375,-2641,-136,-224,-97,154,186,-392
1,156837,-3537,375,-2641,-136,-224,-97,154,186,-392
1,156843,-3537,375,-2641,-136,-224,-97,154,186,-392
1,156848,-3537,375,-2641,-136,-224,-97,154,186,-392
1,156854,-3537,381,-2640,-140,-224,-95,154,186,-392
1,156859,-3537,381,-2640,-140,-224,-95,154,186,-392
1,156865,-3537,381,-2640,-140,-224,-95,154,186,-392
1,156870,-3537,381,-2640,-140,-224,-95,154,186,-392
1,156876,-3538,378,-2638,-144,-221,-93,156,180,-394
1,156881,-3538,378,-2638,-144,-221,-93,156,180,-394
1,156888,-3538,378,-2638,-144,-221,-93,156,180,-394
1,156892,-3538,378,-2638,-144,-221,-93,156,180,-394
1,156898,-3536,375,-2640,-135,-220,-93,156,180,-394
1,156903,-3536,375,-2640,-135,-220,-93,156,180,-394
1,156909,-3536,375,-2640,-135,-220,-93,156,180,-394
1,156914,-3537,377,-2641,-132,-218,-96,156,180,-394
1,156920,-3537,377,-2641,-132,-218,-96,156,180,-394
1,156925,-3537,377,-2641,-132,-218,-96,156,180,-394
1,156932,-3537,377,-2641,-132,-218,-96,156,180,-394
1,156936,-3531,378,-2645,-137,-219,-95,156,180,-394
1,156942,-3531,378,-2645,-137,-219,-95,156,180,-394
1,156947,-3531,378,-2645,-137,-219,-95,156,180,-394
1,156953,-3531,378,-2645,-137,-219,-95,156,180,-394
1,156958,-3537,376,-2644,-135,-215,-93,156,180,-394
1,156964,-3537,376,-2644,-135,-215,-93,156,180,-394
1,156969,-3537,376,-2644,-135,-215,-93,156,180,-394
1,156976,-3536,375,-2642,-141,-221,-95,156,180,-394
1,156980,-3536,375,-2642,-141,-221,-95,156,180,-394
1,156986,-3536,375,-2642,-141,-221,-95,156,180,-394
1,156992,-3536,375,-2642,-141,-221,-95,156,180,-394
1,156997,-3534,378,-2639,-137,-220,-98,155,177,-395
1,157002,-3534,378,-2639,-137,-220,-98,155,177,-395
1,157007,-3534,378,-2639,-137,-220,-98,155,177,-395
1,157014,-3534,378,-2639,-137,-220,-98,155,177,-395
1,157020,-3537,376,-2633,-133,-222,-95,155,177,-395
1,157025,-3537,376,-2633,-133,-222,-95,155,177,-395
1,157030,-3537,376,-2633,-133,-222,-95,155,177,-395
1,157036,-3535,378,-2636,-134,-219,-89,155,177,-395
1,157041,-3535,378,-2636,-134,-219,-89,155,177,-395
1,157047,-3535,378,-2636,-134,-219,-89,155,177,-395
1,157052,-3535,378,-2636,-134,-219,-89,155,177,-395
1,157059,-3535,378,-2639,-134,-216,-86,155,177,-395
1,157064,-3535,378,-2639,-134,-216,-86,155,177,-395
1,157070,-3535,378,-2639,-134,-216,-86,155,177,-395
1,157075,-3536,379,-2646,-137,-217,-96,155,177,-395
1,157080,-3536,379,-2646,-137,-217,-96,155,177,-395
1,157085,-3536,379,-2646,-137,-217,-96,155,177,-395
1,157091,-3536,379,-2646,-137,-217,-96,155,177,-395
1,157097,-3536,376,-2647,-135,-225,-97,155,177,-395
1,157103,-3536,376,-2647,-135,-225,-97,155,177,-395
1,157109,-3536,376,-2647,-135,-225,-97,155,177,-395
1,157115,-3534,377,-2638,-138,-218,-95,154,170,-396
1,157120,-3534,377,-2638,-138,-218,-95,154,170,-396
1,157125,-3534,377,-2638,-138,-218,-95,154,170,-396
1,157130,-3534,377,-2638,-138,-218,-95,154,170,-396
1,157135,-3537,379,-2641,-139,-217,-92,154,170,-396
1,157142,-3537,379,-2641,-139,-217,-92,154,170,-396
1,157147,-3537,379,-2641,-139,-217,-92,154,170,-396
1,157153,-3537,379,-2641,-139,-217,-92,154,170,-396
1,157159,-3534,377,-2641,-145,-216,-97,154,170,-396
1,157164,-3534,377,-2641,-145,-216,-97,154,170,-396
1,157169,-3534,377,-2641,-145,-216,-97,154,170,-396
1,157174,-3536,378,-2638,-144,-223,-99,154,170,-396
1,157180,-3536,378,-2638,-144,-223,-99,154,170,-396
1,157186,-3536,378,-2638,-144,-223,-99,154,170,-396
1,157192,-3536,378,-2638,-144,-223,-99,154,170,-396
1,157197,-3535,379,-2642,-141,-221,-98,154,170,-396
1,157203,-3535,379,-2642,-141,-221,-98,154,170,-396
1,157208,-3535,379,-2642,-141,-221,-98,154,170,-396
1,157213,-3535,379,-2642,-141,-221,-98,154,170,-396
1,157219,-3532,377,-2638,-139,-223,-92,154,170,-396
1,157224,-3532,377,-2638,-139,-223,-92,154,170,-396
1,157231,-3532,377,-2638,-139,-223,-92,154,170,-396
1,157235,-3535,378,-2641,-145,-225,-96,154,170,-396
1,157241,-3535,378,-2641,-145,-225,-96,154,170,-396
1,157246,-3535,378,-2641,-145,-225,-96,154,170,-396
1,157251,-3535,378,-2641,-145,-225,-96,154,170,-396
1,157257,-3536,376,-2635,-141,-217,-98,150,176,-388
1,157262,-3536,376,-2635,-141,-217,-98,150,176,-388
1,157268,-3536,376,-2635,-141,-217,-98,150,176,-388
1,157274,-3536,376,-2635,-141,-217,-98,150,176,-388
1,157279,-3534,376,-2643,-134,-218,-87,150,176,-388
1,157284,-3534,376,-2643,-134,-218,-87,150,176,-388
1,157290,-3534,376,-2643,-134,-218,-87,150,176,-388
1,157296,-3536,377,-2646,-141,-220,-96,150,176,-388
1,157301,-3536,377,-2646,-141,-220,-96,150,176,-388
1,157306,-3536,377,-2646,-141,-220,-96,150,176,-388
1,157312,-3536,377,-2646,-141,-220,-96,150,176,-388
1,157318,-3534,377,-2644,-140,-222,-95,150,176,-388
1,157324,-3534,377,-2644,-140,-222,-95,150,176,-388
1,157330,-3534,377,-2644,-140,-222,-95,150,176,-388
1,157335,-3532,378,-2644,-142,-219,-91,150,176,-388
1,157340,-3532,378,-2644,-142,-219,-91,150,176,-388
1,157346,-3532,378,-2644,-142,-219,-91,150,176,-388
1,157351,-3532,378,-2644,-142,-219,-91,150,176,-388
1,157357,-3535,378,-2643,-140,-219,-91,150,176,-388
1,157362,-3535,378,-2643,-140,-219,-91,150,176,-388
1,157368,-3535,378,-2643,-140,-219,-91,150,176,-388
1,157374,-3535,378,-2643,-140,-219,-91,150,176,-388
1,157379,-3538,376,-2639,-144,-219,-93,153,175,-397
1,157384,-3538,376,-2639,-144,-219,-93,153,175,-397
1,157390,-3538,376,-2639,-144,-219,-93,153,175,-397
1,157395,-3537,377,-2638,-138,-219,-94,153,175,-397
1,157402,-3537,377,-2638,-138,-219,-94,153,175,-397
1,157408,-3537,377,-2638,-138,-219,-94,153,175,-397
1,157414,-3537,377,-2638,-138,-219,-94,153,175,-397
1,157419,-3536,381,-2640,-139,-215,-96,153,175,-397
1,157425,-3536,381,-2640,-139,-215,-96,153,175,-397
1,157430,-3536,381,-2640,-139,-215,-96,153,175,-397
1,157436,-3535,377,-2646,-141,-217,-92,153,175,-397
1,157442,-3535,377,-2646,-141,-217,-92,153,175,-397
1,157448,-3535,377,-2646,-141,-217,-92,153,175,-397
1,157453,-3535,377,-2646,-141,-217,-92,153,175,-397
1,157458,-3536,378,-2646,-144,-217,-87,153,175,-397
1,157464,-3536,378,-2646,-144,-217,-87,153,175,-397
1,157469,-3536,378,-2646,-144,-217,-87,153,175,-397
1,157474,-3536,376,-2645,-142,-209,-92,153,175,-397
1,157480,-3536,376,-2645,-142,-209,-92,153,175,-397
1,157486,-3536,376,-2645,-142,-209,-92,153,175,-397
1,157491,-3536,376,-2645,-142,-209,-92,153,175,-397
1,157496,-3535,377,-2638,-144,-213,-94,160,178,-398
1,157502,-3535,377,-2638,-144,-213,-94,160,178,-398
1,157507,-3535,377,-2638,-144,-213,-94,160,178,-398
1,157513,-3535,377,-2638,-144,-213,-94,160,178,-398
1,157518,-3533,379,-2638,-140,-215,-97,160,178,-398
1,157523,-3533,379,-2638,-140,-215,-97,160,178,-398
1,157530,-3533,379,-2638,-140,-215,-97,160,178,-398
1,157535,-3536,377,-2640,-139,-219,-94,160,178,-398
1,157540,-3536,377,-2640,-139,-219,-94,160,178,-398
1,157546,-3536,377,-2640,-139,-219,-94,160,178,-398
1,157552,-3536,377,-2640,-139,-219,-94,160,178,-398
1,157557,-3537,376,-2645,-146,-220,-89,160,178,-398
1,157563,-3537,376,-2645,-146,-220,-89,160,178,-398
1,157569,-3537,376,-2645,-146,-220,-89,160,178,-398
1,157575,-3536,376,-2641,-141,-222,-89,160,178,-398
1,157580,-3536,376,-2641,-141,-222,-89,160,178,-398
1,157586,-3536,376,-2641,-141,-222,-89,160,178,-398
1,157591,-3536,376,-2641,-141,-222,-89,160,178,-398
1,157596,-3537,373,-2644,-137,-212,-90,160,178,-398
1,157602,-3537,373,-2644,-137,-212,-90,160,178,-398
1,157607,-3537,373,-2644,-137,-212,-90,160,178,-398
1,157613,-3537,373,-2644,-137,-212,-90,160,178,-398
1,157619,-3536,377,-2644,-140,-209,-91,152,178,-392
1,157624,-3536,377,-2644,-140,-209,-91,152,178,-392
1,157629,-3536,377,-2644,-140,-209,-91,152,178,-392
1,157635,-3537,378,-2639,-140,-216,-94,152,178,-392
1,157641,-3537,378,-2639,-140,-216,-94,152,178,-392
1,157646,-3537,378,-2639,-140,-216,-94,152,178,-392
1,157651,-3537,378,-2639,-140,-216,-94,152,178,-392
1,157657,-3535,377,-2641,-138,-216,-98,152,178,-392
1,157663,-3535,377,-2641,-138,-216,-98,152,178,-392
1,157668,-3535,377,-2641,-138,-216,-98,152,178,-392
1,157673,-3535,377,-2641,-138,-216,-98,152,178,-392
1,157679,-3536,378,-2644,-140,-220,-98,152,178,-392
1,157685,-3536,378,-2644,-140,-220,-98,152,178,-392
1,157690,-3536,378,-2644,-140,-220,-98,152,178,-392
1,157696,-3533,379,-2642,-141,-215,-94,152,178,-392
1,157701,-3533,379,-2642,-141,-215,-94,152,178,-392
1,157707,-3533,379,-2642,-141,-215,-94,152,178,-392
1,157712,-3533,379,-2642,-141,-215,-94,152,178,-392
1,157718,-3537,378,-2643,-142,-217,-93,152,178,-392
1,157724,-3537,378,-2643,-142,-217,-93,152,178,-392
1,157729,-3537,378,-2643,-142,-217,-93,152,178,-392
1,157734,-3537,378,-2643,-142,-217,-93,152,178,-392
1,157740,-3536,377,-2644,-140,-215,-90,159,181,-395
1,157745,-3536,377,-2644,-140,-215,-90,159,181,-395
1,157751,-3536,377,-2644,-140,-215,-90,159,181,-395
1,157756,-3535,375,-2640,-139,-216,-95,159,181,-395
1,157762,-3535,375,-2640,-139,-216,-95,159,181,-395
1,157767,-3535,375,-2640,-139,-216,-95,159,181,-395
1,157772,-3535,375,-2640,-139,-216,-95,159,181,-395
1,157778,-3536,376,-2642,-138,-210,-100,159,181,-395
1,157784,-3536,376,-2642,-138,-210,-100,159,181,-395
1,157790,-3536,376,-2642,-138,-210,-100,159,181,-395
1,157795,-3539,378,-2643,-140,-219,-94,159,181,-395
1,157801,-3539,378,-2643,-140,-219,-94,159,181,-395
1,157807,-3539,378,-2643,-140,-219,-94,159,181,-395
1,157812,-3539,378,-2643,-140,-219,-94,159,181,-395
1,157817,-3535,376,-2643,-142,-218,-96,159,181,-395
1,157822,-3535,376,-2643,-142,-218,-96,159,181,-395
1,157829,-3535,376,-2643,-142,-218,-96,159,181,-395
1,157835,-3535,376,-2643,-142,-218,-96,159,181,-395
1,157840,-3536,378,-2645,-139,-221,-105,159,181,-395
1,157846,-3536,378,-2645,-139,-221,-105,159,181,-395
1,157851,-3536,378,-2645,-139,-221,-105,159,181,-395
1,157857,-3534,378,-2643,-143,-220,-90,159,181,-395
1,157862,-3534,378,-2643,-143,-220,-90,159,181,-395
1,157869,-3534,378,-2643,-143,-220,-90,159,181,-395
1,157874,-3534,378,-2643,-143,-220,-90,159,181,-395
1,157880,-3534,377,-2638,-140,-215,-96,151,177,-391
1,157885,-3534,377,-2638,-140,-215,-96,151,177,-391
1,157891,-3534,377,-2638,-140,-215,-96,151,177,-391
1,157896,-3535,377,-2638,-137,-220,-87,151,177,-391
1,157901,-3535,377,-2638,-137,-220,-87,151,177,-391
1,157906,-3535,377,-2638,-137,-220,-87,151,177,-391
1,157913,-3535,377,-2638,-137,-220,-87,151,177,-391
1,157918,-3534,377,-2645,-141,-218,-96,151,177,-391
1,157923,-3534,377,-2645,-141,-218,-96,151,177,-391
1,157929,-3534,377,-2645,-141,-218,-96,151,177,-391
1,157934,-3534,377,-2645,-141,-218,-96,151,177,-391
1,157939,-3537,377,-2644,-149,-229,-100,151,177,-391
1,157944,-3537,377,-2644,-149,-229,-100,151,177,-391
1,157950,-3537,377,-2644,-149,-229,-100,151,177,-391
1,157957,-3531,377,-2642,-144,-214,-94,151,177,-391
1,157962,-3531,377,-2642,-144,-214,-94,151,177,-391
1,157967,-3531,377,-2642,-144,-214,-94,151,177,-391
1,157973,-3531,377,-2642,-144,-214,-94,151,177,-391
1,157978,-3536,377,-2641,-137,-214,-96,151,177,-391
1,157984,-3536,377,-2641,-137,-214,-96,151,177,-391
1,157989,-3536,377,-2641,-137,-214,-96,151,177,-391
1,157996,-3537,376,-2638,-138,-220,-91,159,173,-403
1,158001,-3537,376,-2638,-138,-220,-91,159,173,-403
1,158007,-3537,376,-2638,-138,-220,-91,159,173,-403
1,158012,-3537,376,-2638,-138,-220,-91,159,173,-403
1,158018,-3537,378,-2639,-141,-214,-97,159,173,-403
1,158023,-3537,378,-2639,-141,-214,-97,159,173,-403
1,158028,-3537,378,-2639,-141,-214,-97,159,173,-403
1,158033,-3537,378,-2639,-141,-214,-97,159,173,-403
1,158040,-3535,377,-2642,-136,-207,-95,159,173,-403
1,158045,-3535,377,-2642,-136,-207,-95,159,173,-403
1,158051,-3535,377,-2642,-136,-207,-95,159,173,-403
1,158056,-3535,373,-2642,-131,-214,-92,159,173,-403
1,158062,-3535,373,-2642,-131,-214,-92,159,173,-403
1,158068,-3535,373,-2642,-131,-214,-92,159,173,-403
1,158073,-3535,373,-2642,-131,-214,-92,159,173,-403
1,158078,-3532,374,-2642,-134,-210,-93,159,173,-403
1,158084,-3532,374,-2642,-134,-210,-93,159,173,-403
1,158090,-3532,374,-2642,-134,-210,-93,159,173,-403
1,158095,-3536,377,-2645,-138,-213,-92,159,173,-403
1,158101,-3536,377,-2645,-138,-213,-92,159,173,-403
1,158106,-3536,377,-2645,-138,-213,-92,159,173,-403
1,158111,-3536,377,-2645,-138,-213,-92,159,173,-403
1,158117,-3534,374,-2640,-140,-219,-93,152,178,-392
1,158123,-3534,374,-2640,-140,-219,-93,152,178,-392
1,158128,-3534,374,-2640,-140,-219,-93,152,178,-392
1,158134,-3534,374,-2640,-140,-219,-93,152,178,-392
1,158139,-3535,377,-2643,-141,-213,-90,152,178,-392
1,158145,-3535,377,-2643,-141,-213,-90,152,178,-392
1,158150,-3535,377,-2643,-141,-213,-90,152,178,-392
1,158155,-3537,378,-2644,-134,-224,-89,152,178,-392
1,158161,-3537,378,-2644,-134,-224,-89,152,178,-392
1,158167,-3537,378,-2644,-134,-224,-89,152,178,-392
1,158172,-3537,378,-2644,-134,-224,-89,152,178,-392
1,158178,-3537,378,-2645,-137,-213,-83,152,178,-392
1,158183,-3537,378,-2645,-137,-213,-83,152,178,-392
1,158188,-3537,378,-2645,-137,-213,-83,152,178,-392
1,158194,-3537,378,-2645,-137,-213,-83,152,178,-392
1,158199,-3535,378,-2644,-140,-221,-87,152,178,-392
1,158205,-3535,378,-2644,-140,-221,-87,152,178,-392
1,158211,-3535,378,-2644,-140,-221,-87,152,178,-392
1,158217,-3535,377,-2640,-127,-220,-95,152,178,-392
1,158223,-3535,377,-2640,-127,-220,-95,152,178,-392
1,158228,-3535,377,-2640,-127,-220,-95,152,178,-392
1,158234,-3535,377,-2640,-127,-220,-95,152,178,-392
1,158239,-3535,379,-2646,-133,-215,-92,150,176,-394
1,158245,-3535,379,-2646,-133,-215,-92,150,176,-394
1,158252,-3535,379,-2646,-133,-215,-92,150,176,-394
1,158257,-3538,377,-2640,-137,-219,-93,150,176,-394
1,158262,-3538,377,-2640,-137,-219,-93,150,176,-394
1,158268,-3538,377,-2640,-137,-219,-93,150,176,-394
1,158273,-3538,377,-2640,-137,-219,-93,150,176,-394
1,158278,-3535,378,-2644,-137,-224,-90,150,176,-394
1,158284,-3535,378,-2644,-137,-224,-90,150,176,-394
1,158289,-3535,378,-2644,-137,-224,-90,150,176,-394
1,158295,-3535,378,-2644,-137,-224,-90,150,176,-394
1,158301,-3532,378,-2644,-139,-226,-87,150,176,-394
1,158306,-3532,378,-2644,-139,-226,-87,150,176,-394
1,158312,-3532,378,-2644,-139,-226,-87,150,176,-394
1,158317,-3533,376,-2642,-142,-223,-89,150,176,-394
1,158323,-3533,376,-2642,-142,-223,-89,150,176,-394
1,158328,-3533,376,-2642,-142,-223,-89,150,176,-394
1,158334,-3533,376,-2642,-142,-223,-89,150,176,-394
1,158340,-3534,376,-2645,-135,-223,-92,150,176,-394
1,158345,-3534,376,-2645,-135,-223,-92,150,176,-394
1,158350,-3534,376,-2645,-135,-223,-92,150,176,-394
1,158356,-3537,377,-2649,-140,-213,-87,150,174,-394
1,158362,-3537,377,-2649,-140,-213,-87,150,174,-394
1,158367,-3537,377,-2649,-140,-213,-87,150,174,-394
1,158373,-3537,377,-2649,-140,-213,-87,150,174,-394
1,158379,-3535,378,-2642,-142,-219,-87,150,174,-394
1,158384,-3535,378,-2642,-142,-219,-87,150,174,-394
1,158389,-3535,378,-2642,-142,-219,-87,150,174,-394
1,158394,-3535,378,-2642,-142,-219,-87,150,174,-394
1,158400,-3538,376,-2638,-146,-212,-85,150,174,-394
1,158405,-3538,376,-2638,-146,-212,-85,150,174,-394
1,158411,-3538,376,-2638,-146,-212,-85,150,174,-394
1,158416,-3535,378,-2638,-142,-215,-87,150,174,-394
1,158422,-3535,378,-2638,-142,-215,-87,150,174,-394
1,158427,-3535,378,-2638,-142,-215,-87,150,174,-394
1,158432,-3535,378,-2638,-142,-215,-87,150,174,-394
1,158437,-3535,375,-2643,-141,-222,-83,150,174,-394
1,158443,-3535,375,-2643,-141,-222,-83,150,174,-394
1,158448,-3535,375,-2643,-141,-222,-83,150,174,-394
1,158453,-3535,375,-2643,-141,-222,-83,150,174,-394
1,158459,-3537,376,-2642,-142,-223,-88,150,174,-394
1,158465,-3537,376,-2642,-142,-223,-88,150,174,-394
1,158471,-3537,376,-2642,-142,-223,-88,150,174,-394
1,158476,-3535,378,-2637,-138,-216,-93,152,176,-396
1,158482,-3535,378,-2637,-138,-216,-93,152,176,-396
1,158487,-3535,378,-2637,-138,-216,-93,152,176,-396
1,158492,-3535,378,-2637,-138,-216,-93,152,176,-396
1,158498,-3539,379,-2636,-127,-218,-93,152,176,-396
1,158503,-3539,379,-2636,-127,-218,-93,152,176,-396
1,158510,-3539,379,-2636,-127,-218,-93,152,176,-396
1,158515,-3539,379,-2636,-127,-218,-93,152,176,-396
1,158520,-3539,377,-2640,-138,-220,-93,152,176,-396
1,158526,-3539,377,-2640,-138,-220,-93,152,176,-396
1,158531,-3539,377,-2640,-138,-220,-93,152,176,-396
1,158536,-3536,378,-2645,-138,-217,-90,152,176,-396
1,158542,-3536,378,-2645,-138,-217,-90,152,176,-396
1,158547,-3536,378,-2645,-138,-217,-90,152,176,-396
1,158554,-3536,378,-2645,-138,-217,-90,152,176,-396
1,158560,-3538,381,-2638,-141,-212,-93,152,176,-396
1,158565,-3538,381,-2638,-141,-212,-93,152,176,-396
1,158570,-3538,381,-2638,-141,-212,-93,152,176,-396
1,158576,-3535,379,-2645,-143,-219,-92,152,176,-396
1,158581,-3535,379,-2645,-143,-219,-92,152,176,-396
1,158587,-3535,379,-2645,-143,-219,-92,152,176,-396
1,158593,-3535,379,-2645,-143,-219,-92,152,176,-396
1,158598,-3534,379,-2644,-140,-218,-90,152,176,-396
1,158604,-3534,379,-2644,-140,-218,-90,152,176,-396
1,158609,-3534,379,-2644,-140,-218,-90,152,176,-396
1,158614,-3534,379,-2644,-140,-218,-90,152,176,-396
1,158620,-3534,378,-2640,-140,-215,-90,152,178,-392
1,158626,-3534,378,-2640,-140,-215,-90,152,178,-392
1,158631,-3534,378,-2640,-140,-215,-90,152,178,-392
1,158638,-3532,377,-2640,-143,-217,-92,152,178,-392
1,158643,-3532,377,-2640,-143,-217,-92,152,178,-392
1,158649,-3532,377,-2640,-143,-217,-92,152,178,-392
1,158654,-3532,377,-2640,-143,-217,-92,152,178,-392
1,158659,-3537,377,-2640,-138,-223,-92,152,178,-392
1,158664,-3537,377,-2640,-138,-223,-92,152,178,-392
1,158670,-3537,377,-2640,-138,-223,-92,152,178,-392
1,158675,-3536,377,-2643,-139,-221,-87,152,178,-392
1,158682,-3536,377,-2643,-139,-221,-87,152,178,-392
1,158687,-3536,377,-2643,-139,-221,-87,152,178,-392
1,158693,-3536,377,-2643,-139,-221,-87,152,178,-392
1,158698,-3536,378,-2647,-136,-216,-90,152,178,-392
1,158704,-3536,378,-2647,-136,-216,-90,152,178,-392
1,158709,-3536,378,-2647,-136,-216,-90,152,178,-392
1,158714,-3536,378,-2647,-136,-216,-90,152,178,-392
1,158721,-3536,375,-2646,-132,-221,-91,152,178,-392
1,158726,-3536,375,-2646,-132,-221,-91,152,178,-392
1,158731,-3536,375,-2646,-132,-221,-91,152,178,-392
1,158736,-3535,375,-2639,-138,-216,-96,149,179,-395
1,158742,-3535,375,-2639,-138,-216,-96,149,179,-395
1,158747,-3535,375,-2639,-138,-216,-96,149,179,-395
1,158752,-3535,375,-2639,-138,-216,-96,149,179,-395
1,158758,-3533,379,-2645,-137,-221,-96,149,179,-395
1,158764,-3533,379,-2645,-137,-221,-96,149,179,-395
1,158769,-3533,379,-2645,-137,-221,-96,149,179,-395
1,158775,-3533,379,-2645,-137,-221,-96,149,179,-395
1,158780,-3536,380,-2642,-138,-225,-92,149,179,-395
1,158785,-3536,380,-2642,-138,-225,-92,149,179,-395
1,158791,-3536,380,-2642,-138,-225,-92,149,179,-395
1,158797,-3534,376,-2644,-142,-214,-95,149,179,-395
1,158802,-3534,376,-2644,-142,-214,-95,149,179,-395
1,158809,-3534,376,-2644,-142,-214,-95,149,179,-395
1,158814,-3534,376,-2644,-142,-214,-95,149,179,-395
1,158820,-3534,377,-2646,-143,-227,-102,149,179,-395
1,158825,-3534,377,-2646,-143,-227,-102,149,179,-395
1,158831,-3534,377,-2646,-143,-227,-102,149,179,-395
1,158836,-3533,381,-2644,-142,-228,-96,149,179,-395
1,158842,-3533,381,-2644,-142,-228,-96,149,179,-395
1,158848,-3533,381,-2644,-142,-228,-96,149,179,-395
1,158853,-3533,381,-2644,-142,-228,-96,149,179,-395
1,158859,-3536,378,-2640,-138,-223,-97,154,178,-402
1,158864,-3536,378,-2640,-138,-223,-97,154,178,-402
1,158870,-3536,378,-2640,-138,-223,-97,154,178,-402
1,158875,-3535,379,-2642,-145,-215,-102,154,178,-402
1,158881,-3535,379,-2642,-145,-215,-102,154,178,-402
1,158886,-3535,379,-2642,-145,-215,-102,154,178,-402
1,158893,-3535,379,-2642,-145,-215,-102,154,178,-402
1,158898,-3536,378,-2646,-147,-220,-95,154,178,-402
1,158903,-3536,378,-2646,-147,-220,-95,154,178,-402
1,158909,-3536,378,-2646,-147,-220,-95,154,178,-402
1,158915,-3536,378,-2646,-147,-220,-95,154,178,-402
1,158920,-3533,376,-2644,-144,-228,-98,154,178,-402
1,158925,-3533,376,-2644,-144,-228,-98,154,178,-402
1,158931,-3533,376,-2644,-144,-228,-98,154,178,-402
1,158937,-3533,379,-2642,-140,-224,-94,154,178,-402
1,158942,-3533,379,-2642,-140,-224,-94,154,178,-402
1,158947,-3533,379,-2642,-140,-224,-94,154,178,-402
1,158952,-3533,379,-2642,-140,-224,-94,154,178,-402
1,158958,-3536,375,-2638,-137,-219,-91,154,178,-402
1,158963,-3536,375,-2638,-137,-219,-91,154,178,-402
1,158969,-3536,375,-2638,-137,-219,-91,154,178,-402
1,158974,-3536,375,-2638,-137,-219,-91,154,178,-402
1,158980,-3532,377,-2635,-145,-214,-95,154,186,-400
1,158986,-3532,377,-2635,-145,-214,-95,154,186,-400
1,158991,-3532,377,-2635,-145,-214,-95,154,186,-400
1,158996,-3538,376,-2640,-142,-216,-108,154,186,-400
1,159001,-3538,376,-2640,-142,-216,-108,154,186,-400
1,159006,-3538,376,-2640,-142,-216,-108,154,186,-400
1,159012,-3538,376,-2640,-142,-216,-108,154,186,-400
1,159017,-3534,378,-2645,-141,-222,-102,154,186,-400
1,159023,-3534,378,-2645,-141,-222,-102,154,186,-400
1,159029,-3534,378,-2645,-141,-222,-102,154,186,-400
1,159034,-3534,378,-2645,-141,-222,-102,154,186,-400
1,159039,-3535,377,-2649,-139,-222,-92,154,186,-400
1,159045,-3535,377,-2649,-139,-222,-92,154,186,-400
1,159050,-3535,377,-2649,-139,-222,-92,154,186,-400
1,159055,-3533,375,-2643,-137,-225,-88,154,186,-400
1,159062,-3533,375,-2643,-137,-225,-88,154,186,-400
1,159068,-3533,375,-2643,-137,-225,-88,154,186,-400
1,159073,-3533,375,-2643,-137,-225,-88,154,186,-400
1,159079,-3535,379,-2644,-136,-225,-93,154,186,-400
1,159084,-3535,379,-2644,-136,-225,-93,154,186,-400
1,159090,-3535,379,-2644,-136,-225,-93,154,186,-400
1,159095,-3535,379,-2644,-136,-225,-93,154,186,-400
1,159100,-3535,378,-2638,-140,-218,-87,156,178,-392
1,159106,-3535,378,-2638,-140,-218,-87,156,178,-392
1,159112,-3535,378,-2638,-140,-218,-87,156,178,-392
1,159117,-3535,373,-2639,-144,-211,-94,156,178,-392
1,159123,-3535,373,-2639,-144,-211,-94,156,178,-392
1,159128,-3535,373,-2639,-144,-211,-94,156,178,-392
1,159134,-3535,373,-2639,-144,-211,-94,156,178,-392
1,159139,-3536,377,-2645,-141,-218,-94,156,178,-392
1,159144,-3536,377,-2645,-141,-218,-94,156,178,-392
1,159151,-3536,377,-2645,-141,-218,-94,156,178,-392
1,159156,-3538,374,-2648,-146,-224,-98,156,178,-392
1,159161,-3538,374,-2648,-146,-224,-98,156,178,-392
1,159167,-3538,374,-2648,-146,-224,-98,156,178,-392
1,159172,-3538,374,-2648,-146,-224,-98,156,178,-392
1,159177,-3534,375,-2644,-139,-224,-95,156,178,-392
1,159183,-3534,375,-2644,-139,-224,-95,156,178,-392
1,159188,-3534,375,-2644,-139,-224,-95,156,178,-392
1,159195,-3534,375,-2644,-139,-224,-95,156,178,-392
1,159202,-3536,377,-2647,-141,-219,-95,156,178,-392
1,159207,-3536,377,-2647,-141,-219,-95,156,178,-392
1,159213,-3536,377,-2647,-141,-219,-95,156,178,-392
1,159218,-3536,379,-2644,-145,-215,-102,156,178,-392
1,159223,-3536,379,-2644,-145,-215,-102,156,178,-392
1,159229,-3536,379,-2644,-145,-215,-102,156,178,-392
1,159235,-3536,379,-2644,-145,-215,-102,156,178,-392
1,159240,-3535,376,-2641,-148,-220,-92,153,175,-391
1,159246,-3535,376,-2641,-148,-220,-92,153,175,-391
1,159251,-3535,376,-2641,-148,-220,-92,153,175,-391
1,159256,-3535,375,-2644,-147,-225,-95,153,175,-391
1,159262,-3535,375,-2644,-147,-225,-95,153,175,-391
1,159267,-3535,375,-2644,-147,-225,-95,153,175,-391
1,159272,-3535,375,-2644,-147,-225,-95,153,175,-391
1,159279,-3537,379,-2645,-141,-227,-98,153,175,-391
1,159284,-3537,379,-2645,-141,-227,-98,153,175,-391
1,159289,-3537,379,-2645,-141,-227,-98,153,175,-391
1,159295,-3537,379,-2645,-141,-227,-98,153,175,-391
1,159300,-3535,376,-2642,-142,-220,-91,153,175,-391
1,159306,-3535,376,-2642,-142,-220,-91,153,175,-391
1,159311,-3535,376,-2642,-142,-220,-91,153,175,-391
1,159316,-3534,378,-2636,-145,-221,-96,153,175,-391
1,159322,-3534,378,-2636,-145,-221,-96,153,175,-391
1,159328,-3534,378,-2636,-145,-221,-96,153,175,-391
1,159333,-3534,378,-2636,-145,-221,-96,153,175,-391
1,159338,-3535,376,-2641,-142,-214,-101,153,175,-391
1,159344,-3535,376,-2641,-142,-214,-101,153,175,-391
1,159349,-3535,376,-2641,-142,-214,-101,153,175,-391
1,159355,-3535,376,-2641,-142,-214,-101,153,175,-391
1,159361,-3534,377,-2641,-138,-219,-94,147,175,-399
1,159366,-3534,377,-2641,-138,-219,-94,147,175,-399
1,159372,-3534,377,-2641,-138,-219,-94,147,175,-399
1,159377,-3535,377,-2644,-140,-217,-93,147,175,-399
1,159383,-3535,377,-2644,-140,-217,-93,147,175,-399
1,159389,-3535,377,-2644,-140,-217,-93,147,175,-399
1,159394,-3535,377,-2644,-140,-217,-93,147,175,-399
1,159400,-3537,377,-2642,-135,-217,-101,147,175,-399
1,159406,-3537,377,-2642,-135,-217,-101,147,175,-399
1,159412,-3537,377,-2642,-135,-217,-101,147,175,-399
1,159419,-3538,376,-2645,-136,-219,-100,147,175,-399
1,159425,-3538,376,-2645,-136,-219,-100,147,175,-399
1,159430,-3538,376,-2645,-136,-219,-100,147,175,-399
1,159436,-3536,379,-2642,-135,-214,-95,147,175,-399
1,159441,-3536,379,-2642,-135,-214,-95,147,175,-399
1,159448,-3536,379,-2642,-135,-214,-95,147,175,-399
1,159453,-3536,379,-2642,-135,-214,-95,147,175,-399
1,159458,-3534,378,-2647,-133,-207,-93,147,175,-399
1,159464,-3534,378,-2647,-133,-207,-93,147,175,-399
1,159469,-3534,378,-2647,-133,-207,-93,147,175,-399
1,159474,-3534,378,-2647,-133,-207,-93,147,175,-399
1,159480,-3537,379,-2644,-138,-215,-98,150,174,-398
1,159485,-3537,379,-2644,-138,-215,-98,150,174,-398
1,159491,-3537,379,-2644,-138,-215,-98,150,174,-398
1,159496,-3536,377,-2639,-140,-217,-93,150,174,-398
1,159502,-3536,377,-2639,-140,-217,-93,150,174,-398
1,159507,-3536,377,-2639,-140,-217,-93,150,174,-398
1,159512,-3536,377,-2639,-140,-217,-93,150,174,-398
1,159518,-3537,376,-2645,-139,-222,-95,150,174,-398
1,159523,-3537,376,-2645,-139,-222,-95,150,174,-398
1,159529,-3537,376,-2645,-139,-222,-95,150,174,-398
1,159535,-3537,376,-2645,-139,-222,-95,150,174,-398
1,159540,-3533,377,-2645,-142,-223,-97,150,174,-398
1,159545,-3533,377,-2645,-142,-223,-97,150,174,-398
1,159550,-3533,377,-2645,-142,-223,-97,150,174,-398
1,159556,-3538,378,-2645,-144,-214,-102,150,174,-398
1,159562,-3538,378,-2645,-144,-214,-102,150,174,-398
1,159567,-3538,378,-2645,-144,-214,-102,150,174,-398
1,159574,-3538,378,-2645,-144,-214,-102,150,174,-398
1,159579,-3536,375,-2641,-142,-220,-99,150,174,-398
1,159584,-3536,375,-2641,-142,-220,-99,150,174,-398
1,159590,-3536,375,-2641,-142,-220,-99,150,174,-398
1,159595,-3536,375,-2641,-142,-220,-99,150,174,-398
1,159601,-3535,379,-2641,-141,-218,-94,152,182,-396
1,159607,-3535,379,-2641,-141,-218,-94,152,182,-396
1,159612,-3535,379,-2641,-141,-218,-94,152,182,-396
1,159618,-3537,379,-2640,-135,-209,-93,152,182,-396
1,159623,-3537,379,-2640,-135,-209,-93,152,182,-396
1,159629,-3537,379,-2640,-135,-209,-93,152,182,-396
1,159634,-3537,379,-2640,-135,-209,-93,152,182,-396
1,159640,-3537,379,-2640,-135,-209,-93,152,182,-396
1,159646,-3537,379,-2640,-135,-209,-93,152,182,-396
1,159651,-3537,379,-2640,-135,-209,-93,152,182,-396
1,159657,-3536,378,-2644,-141,-219,-99,152,182,-396
1,159663,-3536,378,-2644,-141,-219,-99,152,182,-396
1,159669,-3536,378,-2644,-141,-219,-99,152,182,-396
1,159673,-3536,378,-2644,-141,-219,-99,152,182,-396
1,159679,-3535,377,-2641,-134,-218,-93,152,182,-396
1,159684,-3535,377,-2641,-134,-218,-93,152,182,-396
1,159690,-3535,377,-2641,-134,-218,-93,152,182,-396
1,159695,-3535,377,-2641,-134,-218,-93,152,182,-396
1,159700,-3539,378,-2645,-138,-216,-96,152,182,-396
1,159707,-3539,378,-2645,-138,-216,-96,152,182,-396
1,159712,-3539,378,-2645,-138,-216,-96,152,182,-396
1,159717,-3535,377,-2643,-136,-219,-96,151,181,-399
1,159722,-3535,377,-2643,-136,-219,-96,151,181,-399
1,159728,-3535,377,-2643,-136,-219,-96,151,181,-399
1,159733,-3535,377,-2643,-136,-219,-96,151,181,-399
1,159738,-3537,377,-2639,-140,-220,-94,151,181,-399
1,159744,-3537,377,-2639,-140,-220,-94,151,181,-399
1,159749,-3537,377,-2639,-140,-220,-94,151,181,-399
1,159755,-3537,377,-2639,-140,-220,-94,151,181,-399
1,159760,-3537,375,-2643,-143,-213,-89,151,181,-399
1,159765,-3537,375,-2643,-143,-213,-89,151,181,-399
1,159770,-3537,375,-2643,-143,-213,-89,151,181,-399
1,159776,-3537,375,-2643,-143,-213,-89,151,181,-399
1,159781,-3533,378,-2646,-139,-223,-96,151,181,-399
1,159787,-3533,378,-2646,-139,-223,-96,151,181,-399
1,159792,-3533,378,-2646,-139,-223,-96,151,181,-399
1,159798,-3532,378,-2644,-138,-218,-100,151,181,-399
1,159803,-3532,378,-2644,-138,-218,-100,151,181,-399
1,159808,-3532,378,-2644,-138,-218,-100,151,181,-399
1,159813,-3532,378,-2644,-138,-218,-100,151,181,-399
1,159819,-3537,378,-2641,-135,-222,-92,151,181,-399
1,159824,-3537,378,-2641,-135,-222,-92,151,181,-399
1,159830,-3537,378,-2641,-135,-222,-92,151,181,-399
1,159836,-3537,378,-2641,-135,-222,-92,151,181,-399
1,159842,-3537,376,-2642,-140,-222,-88,155,173,-391
1,159847,-3537,376,-2642,-140,-222,-88,155,173,-391
1,159852,-3537,376,-2642,-140,-222,-88,155,173,-391
1,159857,-3536,376,-2640,-145,-225,-91,155,173,-391
1,159863,-3536,376,-2640,-145,-225,-91,155,173,-391
1,159868,-3536,376,-2640,-145,-225,-91,155,173,-391
1,159875,-3536,376,-2640,-145,-225,-91,155,173,-391
1,159880,-3534,375,-2640,-139,-214,-89,155,173,-391
1,159886,-3534,375,-2640,-139,-214,-89,155,173,-391
1,159891,-3534,375,-2640,-139,-214,-89,155,173,-391
1,159896,-3534,375,-2640,-139,-214,-89,155,173,-391
1,159902,-3538,372,-2642,-138,-216,-91,155,173,-391
1,159907,-3538,372,-2642,-138,-216,-91,155,173,-391
1,159913,-3538,372,-2642,-138,-216,-91,155,173,-391
1,159919,-3536,379,-2640,-140,-226,-100,155,173,-391
1,159924,-3536,379,-2640,-140,-226,-100,155,173,-391
1,159930,-3536,379,-2640,-140,-226,-100,155,173,-391
1,159935,-3536,379,-2640,-140,-226,-100,155,173,-391
1,159941,-3538,376,-2644,-137,-221,-93,155,173,-391
1,159947,-3538,376,-2644,-137,-221,-93,155,173,-391
1,159952,-3538,376,-2644,-137,-221,-93,155,173,-391
1,159959,-3535,376,-2645,-137,-215,-91,155,173,-391
1,159964,-3535,376,-2645,-137,-215,-91,155,173,-391
1,159970,-3535,376,-2645,-137,-215,-91,155,173,-391
1,159975,-3535,376,-2645,-137,-215,-91,155,173,-391
1,159980,-3535,380,-2640,-146,-221,-88,154,176,-396
1,159986,-3535,380,-2640,-146,-221,-88,154,176,-396
1,159991,-3535,380,-2640,-146,-221,-88,154,176,-396
1,159996,-3538,377,-2639,-143,-220,-96,154,176,-396
1,160003,-3538,377,-2639,-143,-220,-96,154,176,-396
1,160008,-3538,377,-2639,-143,-220,-96,154,176,-396
1,160013,-3538,377,-2639,-143,-220,-96,154,176,-396
1,160018,-3536,378,-2644,-139,-216,-93,154,176,-396
1,160024,-3536,378,-2644,-139,-216,-93,154,176,-396
1,160029,-3536,378,-2644,-139,-216,-93,154,176,-396
1,160035,-3536,378,-2644,-139,-216,-93,154,176,-396
1,160039,-3538,377,-2640,-133,-218,-96,154,176,-396
1,160046,-3538,377,-2640,-133,-218,-96,154,176,-396
1,160052,-3538,377,-2640,-133,-218,-96,154,176,-396
1,160057,-3536,374,-2642,-135,-225,-93,154,176,-396
1,160063,-3536,374,-2642,-135,-225,-93,154,176,-396
1,160068,-3536,374,-2642,-135,-225,-93,154,176,-396
1,160073,-3536,374,-2642,-135,-225,-93,154,176,-396
1,160079,-3536,374,-2642,-135,-225,-93,154,176,-396
1,160084,-3536,374,-2642,-135,-225,-93,154,176,-396
1,160091,-3536,374,-2642,-135,-225,-93,154,176,-396
1,160096,-3536,374,-2642,-135,-225,-93,154,176,-396
1,160102,-3537,376,-2639,-143,-217,-93,152,176,-400
1,160107,-3537,376,-2639,-143,-217,-93,152,176,-400
1,160112,-3537,376,-2639,-143,-217,-93,152,176,-400
1,160117,-3537,376,-2645,-136,-224,-98,152,176,-400
1,160122,-3537,376,-2645,-136,-224,-98,152,176,-400
1,160129,-3537,376,-2645,-136,-224,-98,152,176,-400
1,160135,-3537,376,-2645,-136,-224,-98,152,176,-400
1,160140,-3534,379,-2646,-133,-227,-101,152,176,-400
1,160146,-3534,379,-2646,-133,-227,-101,152,176,-400
1,160151,-3534,379,-2646,-133,-227,-101,152,176,-400
1,160156,-3534,379,-2646,-133,-227,-101,152,176,-400
1,160162,-3536,377,-2640,-138,-221,-102,152,176,-400
1,160167,-3536,377,-2640,-138,-221,-102,152,176,-400
1,160173,-3536,377,-2640,-138,-221,-102,152,176,-400
1,160179,-3535,378,-2645,-139,-216,-98,152,176,-400
1,160184,-3535,378,-2645,-139,-216,-98,152,176,-400
1,160190,-3535,378,-2645,-139,-216,-98,152,176,-400
1,160196,-3535,378,-2645,-139,-216,-98,152,176,-400
1,160201,-3535,378,-2640,-137,-220,-89,152,176,-400
1,160206,-3535,378,-2640,-137,-220,-89,152,176,-400
1,160212,-3535,378,-2640,-137,-220,-89,152,176,-400
1,160218,-3534,376,-2636,-136,-215,-96,145,175,-391
1,160223,-3534,376,-2636,-136,-215,-96,145,175,-391
1,160229,-3534,376,-2636,-136,-215,-96,145,175,-391
1,160234,-3534,376,-2636,-136,-215,-96,145,175,-391
1,160239,-3534,376,-2641,-138,-216,-97,145,175,-391
1,160245,-3534,376,-2641,-138,-216,-97,145,175,-391
1,160250,-3534,376,-2641,-138,-216,-97,145,175,-391
1,160256,-3534,376,-2641,-138,-216,-97,145,175,-391
1,160262,-3536,377,-2644,-142,-227,-91,145,175,-391
1,160268,-3536,377,-2644,-142,-227,-91,145,175,-391
1,160273,-3536,377,-2644,-142,-227,-91,145,175,-391
1,160279,-3536,376,-2638,-138,-219,-95,145,175,-391
1,160284,-3536,376,-2638,-138,-219,-95,145,175,-391
1,160289,-3536,376,-2638,-138,-219,-95,145,175,-391
1,160294,-3536,376,-2638,-138,-219,-95,145,175,-391
1,160300,-3532,377,-2635,-135,-222,-86,145,175,-391
1,160306,-3532,377,-2635,-135,-222,-86,145,175,-391
1,160311,-3532,377,-2635,-135,-222,-86,145,175,-391
1,160317,-3534,381,-2643,-128,-215,-82,145,175,-391
1,160323,-3534,381,-2643,-128,-215,-82,145,175,-391
1,160328,-3534,381,-2643,-128,-215,-82,145,175,-391
1,160334,-3534,381,-2643,-128,-215,-82,145,175,-391
1,160339,-3535,377,-2641,-138,-211,-89,145,177,-397
1,160346,-3535,377,-2641,-138,-211,-89,145,177,-397
1,160351,-3535,377,-2641,-138,-211,-89,145,177,-397
1,160356,-3535,377,-2641,-138,-211,-89,145,177,-397
1,160362,-3536,376,-2642,-141,-221,-99,145,177,-397
1,160367,-3536,376,-2642,-141,-221,-99,145,177,-397
1,160373,-3536,376,-2642,-141,-221,-99,145,177,-397
1,160379,-3538,377,-2642,-136,-222,-97,145,177,-397
1,160384,-3538,377,-2642,-136,-222,-97,145,177,-397
1,160390,-3538,377,-2642,-136,-222,-97,145,177,-397
1,160395,-3538,377,-2642,-136,-222,-97,145,177,-397
1,160401,-3534,377,-2645,-135,-215,-94,145,177,-397
1,160406,-3534,377,-2645,-135,-215,-94,145,177,-397
1,160412,-3534,377,-2645,-135,-215,-94,145,177,-397
1,160417,-3537,377,-2637,-138,-217,-92,145,177,-397
1,160423,-3537,377,-2637,-138,-217,-92,145,177,-397
1,160430,-3537,377,-2637,-138,-217,-92,145,177,-397
1,160437,-3537,377,-2637,-138,-217,-92,145,177,-397
1,160444,-3532,375,-2637,-144,-219,-93,145,177,-397
1,160450,-3532,375,-2637,-144,-219,-93,145,177,-397
1,160455,-3532,375,-2637,-144,-219,-93,145,177,-397
1,160461,-3534,377,-2640,-136,-225,-98,152,174,-390
1,160466,-3534,377,-2640,-136,-225,-98,152,174,-390
1,160472,-3534,377,-2640,-136,-225,-98,152,174,-390
1,160478,-3536,379,-2641,-142,-216,-98,152,174,-390
1,160483,-3536,379,-2641,-142,-216,-98,152,174,-390
1,160489,-3536,379,-2641,-142,-216,-98,152,174,-390
1,160494,-3536,379,-2641,-142,-216,-98,152,174,-390
1,160499,-3536,378,-2645,-137,-214,-92,152,174,-390
1,160504,-3536,378,-2645,-137,-214,-92,152,174,-390
1,160509,-3536,378,-2645,-137,-214,-92,152,174,-390
1,160516,-3536,378,-2645,-137,-214,-92,152,174,-390
1,160521,-3535,377,-2638,-138,-213,-86,152,174,-390
1,160527,-3535,377,-2638,-138,-213,-86,152,174,-390
1,160531,-3535,377,-2638,-138,-213,-86,152,174,-390
1,160536,-3535,377,-2638,-138,-213,-86,152,174,-390
1,160542,-3535,374,-2647,-135,-221,-92,152,174,-390
1,160547,-3535,374,-2647,-135,-221,-92,152,174,-390
1,160552,-3535,374,-2647,-135,-221,-92,152,174,-390
1,160558,-3536,377,-2645,-140,-221,-92,152,174,-390
1,160564,-3536,377,-2645,-140,-221,-92,152,174,-390
1,160569,-3536,377,-2645,-140,-221,-92,152,174,-390
1,160574,-3536,377,-2645,-140,-221,-92,152,174,-390
1,160579,-3534,378,-2642,-142,-224,-97,157,173,-389
1,160585,-3534,378,-2642,-142,-224,-97,157,173,-389
1,160591,-3534,378,-2642,-142,-224,-97,157,173,-389
1,160596,-3534,378,-2642,-142,-224,-97,157,173,-389
1,160602,-3535,379,-2637,-139,-218,-93,157,173,-389
1,160607,-3535,379,-2637,-139,-218,-93,157,173,-389
1,160613,-3535,379,-2637,-139,-218,-93,157,173,-389
1,160618,-3534,378,-2643,-133,-215,-97,157,173,-389
1,160623,-3534,378,-2643,-133,-215,-97,157,173,-389
1,160629,-3534,378,-2643,-133,-215,-97,157,173,-389
1,160634,-3534,378,-2643,-133,-215,-97,157,173,-389
1,160640,-3538,377,-2642,-129,-211,-100,157,173,-389
1,160645,-3538,377,-2642,-129,-211,-100,157,173,-389
1,160650,-3538,377,-2642,-129,-211,-100,157,173,-389
1,160656,-3538,377,-2642,-129,-211,-100,157,173,-389
1,160661,-3534,375,-2643,-134,-216,-96,157,173,-389
1,160667,-3534,375,-2643,-134,-216,-96,157,173,-389
1,160673,-3534,375,-2643,-134,-216,-96,157,173,-389
1,160678,-3537,380,-2643,-139,-220,-93,157,173,-389
1,160685,-3537,380,-2643,-139,-220,-93,157,173,-389
1,160690,-3537,380,-2643,-139,-220,-93,157,173,-389
1,160696,-3537,380,-2643,-139,-220,-93,157,173,-389
1,160702,-3535,378,-2644,-130,-220,-95,157,173,-389
1,160707,-3535,378,-2644,-130,-220,-95,157,173,-389
1,160712,-3535,378,-2644,-130,-220,-95,157,173,-389
1,160717,-3534,379,-2638,-140,-213,-92,157,173,-389
1,160723,-3534,379,-2638,-140,-213,-92,150,180,-390
1,160729,-3534,379,-2638,-140,-213,-92,150,180,-390
1,160735,-3534,379,-2638,-140,-213,-92,150,180,-390
1,160740,-3535,375,-2638,-143,-215,-99,150,180,-390
1,160745,-3535,375,-2638,-143,-215,-99,150,180,-390
1,160750,-3535,375,-2638,-143,-215,-99,150,180,-390
1,160756,-3535,375,-2638,-143,-215,-99,150,180,-390
1,160761,-3537,379,-2639,-146,-218,-95,150,180,-390
1,160766,-3537,379,-2639,-146,-218,-95,150,180,-390
1,160772,-3537,379,-2639,-146,-218,-95,150,180,-390
1,160778,-3537,377,-2647,-141,-227,-95,150,180,-390
1,160783,-3537,377,-2647,-141,-227,-95,150,180,-390
1,160789,-3537,377,-2647,-141,-227,-95,150,180,-390
1,160795,-3537,377,-2647,-141,-227,-95,150,180,-390
1,160800,-3535,377,-2643,-142,-215,-95,150,180,-390
1,160805,-3535,377,-2643,-142,-215,-95,150,180,-390
1,160812,-3535,377,-2643,-142,-215,-95,150,180,-390
1,160818,-3537,379,-2637,-140,-221,-95,150,180,-390
1,160823,-3537,379,-2637,-140,-221,-95,150,180,-390
1,160829,-3537,379,-2637,-140,-221,-95,150,180,-390
1,160834,-3537,379,-2637,-140,-221,-95,150,180,-390
1,160840,-3536,377,-2635,-130,-219,-91,151,177,-393
1,160846,-3536,377,-2635,-130,-219,-91,151,177,-393
1,160851,-3536,377,-2635,-130,-219,-91,151,177,-393
1,160857,-3536,377,-2635,-130,-219,-91,151,177,-393
1,160863,-3538,378,-2644,-135,-226,-98,151,177,-393
1,160868,-3538,378,-2644,-135,-226,-98,151,177,-393
1,160873,-3538,378,-2644,-135,-226,-98,151,177,-393
1,160878,-3535,377,-2637,-136,-223,-92,151,177,-393
1,160884,-3535,377,-2637,-136,-223,-92,151,177,-393
1,160890,-3535,377,-2637,-136,-223,-92,151,177,-393
1,160896,-3535,377,-2637,-136,-223,-92,151,177,-393
1,160901,-3533,378,-2644,-137,-217,-92,151,177,-393
1,160907,-3533,378,-2644,-137,-217,-92,151,177,-393
1,160912,-3533,378,-2644,-137,-217,-92,151,177,-393
1,160917,-3533,378,-2644,-137,-217,-92,151,177,-393
1,160922,-3535,378,-2641,-145,-223,-95,151,177,-393
1,160928,-3535,378,-2641,-145,-223,-95,151,177,-393
1,160932,-3535,378,-2641,-145,-223,-95,151,177,-393
1,160937,-3534,379,-2648,-141,-225,-90,151,177,-393
1,160944,-3534,379,-2648,-141,-225,-90,151,177,-393
1,160949,-3534,379,-2648,-141,-225,-90,151,177,-393
1,160955,-3534,379,-2648,-141,-225,-90,151,177,-393
1,160959,-3534,377,-2638,-136,-216,-83,162,178,-392
1,160964,-3534,377,-2638,-136,-216,-83,162,178,-392
1,160970,-3534,377,-2638,-136,-216,-83,162,178,-392
1,160976,-3534,377,-2638,-136,-216,-83,162,178,-392
1,160982,-3535,376,-2642,-139,-215,-82,162,178,-392
1,160987,-3535,376,-2642,-139,-215,-82,162,178,-392
1,160992,-3535,376,-2642,-139,-215,-82,162,178,-392
1,160998,-3534,376,-2640,-138,-212,-93,162,178,-392
1,161003,-3534,376,-2640,-138,-212,-93,162,178,-392
1,161009,-3534,376,-2640,-138,-212,-93,162,178,-392
1,161015,-3534,376,-2640,-138,-212,-93,162,178,-392
1,161020,-3536,375,-2642,-134,-221,-82,162,178,-392
1,161026,-3536,375,-2642,-134,-221,-82,162,178,-392
1,161031,-3536,375,-2642,-134,-221,-82,162,178,-392
1,161037,-3536,375,-2642,-134,-221,-82,162,178,-392
1,161042,-3536,377,-2644,-141,-217,-90,162,178,-392
1,161048,-3536,377,-2644,-141,-217,-90,162,178,-392
1,161053,-3536,377,-2644,-141,-217,-90,162,178,-392
1,161059,-3531,378,-2646,-134,-223,-100,162,178,-392
1,161065,-3531,378,-2646,-134,-223,-100,162,178,-392
1,161072,-3531,378,-2646,-134,-223,-100,162,178,-392
1,161077,-3531,378,-2646,-134,-223,-100,162,178,-392
1,161083,-3534,379,-2642,-134,-221,-106,150,172,-390
1,161088,-3534,379,-2642,-134,-221,-106,150,172,-390
1,161094,-3534,379,-2642,-134,-221,-106,150,172,-390
1,161099,-3536,375,-2638,-139,-218,-95,150,172,-390
1,161105,-3536,375,-2638,-139,-218,-95,150,172,-390
1,161111,-3536,375,-2638,-139,-218,-95,150,172,-390
1,161117,-3536,375,-2638,-139,-218,-95,150,172,-390
1,161122,-3539,373,-2646,-136,-220,-95,150,172,-390
1,161128,-3539,373,-2646,-136,-220,-95,150,172,-390
1,161133,-3539,373,-2646,-136,-220,-95,150,172,-390
1,161138,-3536,375,-2640,-136,-228,-100,150,172,-390
1,161144,-3536,375,-2640,-136,-228,-100,150,172,-390
1,161149,-3536,375,-2640,-136,-228,-100,150,172,-390
1,161156,-3536,375,-2640,-136,-228,-100,150,172,-390
1,161161,-3539,376,-2643,-134,-220,-97,150,172,-390
1,161166,-3539,376,-2643,-134,-220,-97,150,172,-390
1,161172,-3539,376,-2643,-134,-220,-97,150,172,-390
1,161177,-3539,376,-2643,-134,-220,-97,150,172,-390
1,161183,-3537,378,-2639,-144,-224,-98,150,172,-390
1,161189,-3537,378,-2639,-144,-224,-98,150,172,-390
1,161195,-3537,378,-2639,-144,-224,-98,150,172,-390
1,161201,-3535,379,-2640,-139,-221,-88,147,183,-389
1,161207,-3535,379,-2640,-139,-221,-88,147,183,-389
1,161212,-3535,379,-2640,-139,-221,-88,147,183,-389
1,161218,-3535,379,-2640,-139,-221,-88,147,183,-389
1,161223,-3538,379,-2643,-144,-226,-91,147,183,-389
1,161229,-3538,379,-2643,-144,-226,-91,147,183,-389
1,161234,-3538,379,-2643,-144,-226,-91,147,183,-389
1,161241,-3538,376,-2642,-137,-217,-93,147,183,-389
1,161246,-3538,376,-2642,-137,-217,-93,147,183,-389
1,161251,-3538,376,-2642,-137,-217,-93,147,183,-389
1,161257,-3538,376,-2642,-137,-217,-93,147,183,-389
1,161262,-3534,378,-2642,-144,-219,-87,147,183,-389
1,161268,-3534,378,-2642,-144,-219,-87,147,183,-389
1,161273,-3534,378,-2642,-144,-219,-87,147,183,-389
1,161280,-3537,375,-2637,-139,-222,-90,147,183,-389
1,161285,-3537,375,-2637,-139,-222,-90,147,183,-389
1,161290,-3537,375,-2637,-139,-222,-90,147,183,-389
1,161296,-3537,375,-2637,-139,-222,-90,147,183,-389
1,161301,-3535,377,-2641,-141,-216,-91,147,183,-389
1,161306,-3535,377,-2641,-141,-216,-91,147,183,-389
1,161312,-3535,377,-2641,-141,-216,-91,147,183,-389
1,161317,-3535,377,-2641,-141,-216,-91,147,183,-389
1,161324,-3535,379,-2639,-137,-219,-96,147,183,-389
1,161329,-3535,379,-2639,-137,-219,-96,147,183,-389
1,161334,-3535,379,-2639,-137,-219,-96,147,183,-389
1,161339,-3536,378,-2641,-136,-220,-103,148,186,-402
1,161345,-3536,378,-2641,-136,-220,-103,148,186,-402
1,161351,-3536,378,-2641,-136,-220,-103,148,186,-402
1,161357,-3536,378,-2641,-136,-220,-103,148,186,-402
1,161362,-3536,374,-2643,-137,-225,-98,148,186,-402
1,161368,-3536,374,-2643,-137,-225,-98,148,186,-402
1,161374,-3536,374,-2643,-137,-225,-98,148,186,-402
1,161379,-3532,377,-2642,-136,-225,-92,148,186,-402
1,161385,-3532,377,-2642,-136,-225,-92,148,186,-402
1,161390,-3532,377,-2642,-136,-225,-92,148,186,-402
1,161396,-3532,377,-2642,-136,-225,-92,148,186,-402
1,161401,-3539,379,-2641,-146,-221,-89,148,186,-402
1,161408,-3539,379,-2641,-146,-221,-89,148,186,-402
1,161413,-3539,379,-2641,-146,-221,-89,148,186,-402
1,161418,-3539,379,-2641,-146,-221,-89,148,186,-402
1,161424,-3537,376,-2643,-143,-225,-95,148,186,-402
1,161429,-3537,376,-2643,-143,-225,-95,148,186,-402
1,161434,-3537,376,-2643,-143,-225,-95,148,186,-402
1,161440,-3535,377,-2643,-143,-223,-104,148,186,-402
1,161445,-3535,377,-2643,-143,-223,-104,148,186,-402
1,161451,-3535,377,-2643,-143,-223,-104,148,186,-402
1,161457,-3535,377,-2643,-143,-223,-104,148,186,-402
1,161462,-3536,377,-2636,-139,-218,-99,155,175,-391
1,161468,-3536,377,-2636,-139,-218,-99,155,175,-391
1,161473,-3536,377,-2636,-139,-218,-99,155,175,-391
1,161479,-3536,378,-2642,-140,-212,-104,155,175,-391
1,161486,-3536,378,-2642,-140,-212,-104,155,175,-391
1,161491,-3536,378,-2642,-140,-212,-104,155,175,-391
1,161497,-3536,378,-2642,-140,-212,-104,155,175,-391
1,161503,-3537,379,-2635,-136,-217,-99,155,175,-391
1,161509,-3537,379,-2635,-136,-217,-99,155,175,-391
1,161515,-3537,379,-2635,-136,-217,-99,155,175,-391
1,161520,-3536,377,-2646,-132,-215,-99,155,175,-391
1,161525,-3536,377,-2646,-132,-215,-99,155,175,-391
1,161531,-3536,377,-2646,-132,-215,-99,155,175,-391
1,161537,-3536,377,-2646,-132,-215,-99,155,175,-391
1,161543,-3535,377,-2646,-134,-216,-98,155,175,-391
1,161548,-3535,377,-2646,-134,-216,-98,155,175,-391
1,161553,-3535,377,-2646,-134,-216,-98,155,175,-391
1,161558,-3537,377,-2641,-137,-224,-92,155,175,-391
1,161564,-3537,377,-2641,-137,-224,-92,155,175,-391
1,161569,-3537,377,-2641,-137,-224,-92,155,175,-391
1,161575,-3537,377,-2641,-137,-224,-92,155,175,-391
1,161581,-3537,380,-2640,-140,-225,-89,147,181,-395
1,161587,-3537,380,-2640,-140,-225,-89,147,181,-395
1,161592,-3537,380,-2640,-140,-225,-89,147,181,-395
1,161598,-3537,380,-2640,-140,-225,-89,147,181,-395
1,161603,-3537,377,-2647,-142,-218,-92,147,181,-395
1,161609,-3537,377,-2647,-142,-218,-92,147,181,-395
1,161614,-3537,377,-2647,-142,-218,-92,147,181,-395
1,161619,-3539,377,-2640,-140,-213,-94,147,181,-395
1,161625,-3539,377,-2640,-140,-213,-94,147,181,-395
1,161631,-3539,377,-2640,-140,-213,-94,147,181,-395
1,161636,-3539,377,-2640,-140,-213,-94,147,181,-395
1,161641,-3535,380,-2643,-145,-218,-103,147,181,-395
1,161646,-3535,380,-2643,-145,-218,-103,147,181,-395
1,161652,-3535,380,-2643,-145,-218,-103,147,181,-395
1,161657,-3535,380,-2643,-145,-218,-103,147,181,-395
1,161664,-3537,379,-2643,-139,-218,-92,147,181,-395
1,161669,-3537,379,-2643,-139,-218,-92,147,181,-395
1,161675,-3537,379,-2643,-139,-218,-92,147,181,-395
1,161681,-3534,379,-2641,-139,-221,-83,147,181,-395
1,161687,-3534,379,-2641,-139,-221,-83,147,181,-395
1,161692,-3534,379,-2641,-139,-221,-83,147,181,-395
1,161698,-3534,379,-2641,-139,-221,-83,147,181,-395
1,161703,-3534,379,-2641,-139,-221,-83,154,182,-396
1,161710,-3534,379,-2641,-139,-221,-83,154,182,-396
1,161715,-3534,379,-2641,-139,-221,-83,154,182,-396
1,161720,-3535,376,-2638,-133,-217,-95,154,182,-396
1,161726,-3535,376,-2638,-133,-217,-95,154,182,-396
1,161731,-3535,376,-2638,-133,-217,-95,154,182,-396
1,161736,-3535,376,-2638,-133,-217,-95,154,182,-396
1,161742,-3534,376,-2647,-138,-220,-96,154,182,-396
1,161747,-3534,376,-2647,-138,-220,-96,154,182,-396
1,161754,-3534,376,-2647,-138,-220,-96,154,182,-396
1,161759,-3536,378,-2641,-141,-225,-96,154,182,-396
1,161764,-3536,378,-2641,-141,-225,-96,154,182,-396
1,161770,-3536,378,-2641,-141,-225,-96,154,182,-396
1,161775,-3536,378,-2641,-141,-225,-96,154,182,-396
1,161780,-3535,377,-2638,-146,-217,-94,154,182,-396
1,161786,-3535,377,-2638,-146,-217,-94,154,182,-396
1,161793,-3535,377,-2638,-146,-217,-94,154,182,-396
1,161798,-3535,377,-2638,-146,-217,-94,154,182,-396
1,161804,-3536,379,-2642,-141,-226,-93,154,182,-396
1,161809,-3536,379,-2642,-141,-226,-93,154,182,-396
1,161814,-3536,379,-2642,-141,-226,-93,154,182,-396
1,161820,-3537,381,-2640,-135,-215,-86,149,183,-397
1,161825,-3537,381,-2640,-135,-215,-86,149,183,-397
1,161830,-3537,381,-2640,-135,-215,-86,149,183,-397
1,161836,-3537,381,-2640,-135,-215,-86,149,183,-397
1,161842,-3534,375,-2643,-130,-217,-100,149,183,-397
1,161847,-3534,375,-2643,-130,-217,-100,149,183,-397
1,161853,-3534,375,-2643,-130,-217,-100,149,183,-397
1,161858,-3534,375,-2643,-130,-217,-100,149,183,-397
1,161864,-3538,379,-2648,-134,-221,-102,149,183,-397
1,161869,-3538,379,-2648,-134,-221,-102,149,183,-397
1,161874,-3538,379,-2648,-134,-221,-102,149,183,-397
1,161880,-3537,379,-2643,-137,-228,-98,149,183,-397
1,161886,-3537,379,-2643,-137,-228,-98,149,183,-397
1,161891,-3537,379,-2643,-137,-228,-98,149,183,-397
1,161896,-3537,379,-2643,-137,-228,-98,149,183,-397
1,161902,-3535,378,-2647,-134,-215,-89,149,183,-397
1,161908,-3535,378,-2647,-134,-215,-89,149,183,-397
1,161913,-3535,378,-2647,-134,-215,-89,149,183,-397
1,161918,-3533,378,-2639,-144,-213,-90,149,183,-397
1,161924,-3533,378,-2639,-144,-213,-90,149,183,-397
1,161930,-3533,378,-2639,-144,-213,-90,149,183,-397
1,161935,-3533,378,-2639,-144,-213,-90,149,183,-397
1,161940,-3537,377,-2643,-140,-217,-89,149,175,-389
1,161946,-3537,377,-2643,-140,-217,-89,149,175,-389
1,161951,-3537,377,-2643,-140,-217,-89,149,175,-389
1,161957,-3537,377,-2643,-140,-217,-89,149,175,-389
1,161963,-3537,379,-2644,-139,-220,-95,149,175,-389
1,161968,-3537,379,-2644,-139,-220,-95,149,175,-389
1,161974,-3537,379,-2644,-139,-220,-95,149,175,-389
1,161979,-3536,377,-2644,-140,-224,-98,149,175,-389
1,161985,-3536,377,-2644,-140,-224,-98,149,175,-389
1,161991,-3536,377,-2644,-140,-224,-98,149,175,-389
1,161996,-3536,377,-2644,-140,-224,-98,149,175,-389
1,162001,-3538,375,-2646,-142,-220,-96,149,175,-389
1,162007,-3538,375,-2646,-142,-220,-96,149,175,-389
1,162013,-3538,375,-2646,-142,-220,-96,149,175,-389
1,162018,-3538,375,-2646,-142,-220,-96,149,175,-389
1,162023,-3537,376,-2644,-138,-218,-93,149,175,-389
1,162028,-3537,376,-2644,-138,-218,-93,149,175,-389
1,162034,-3537,376,-2644,-138,-218,-93,149,175,-389
1,162039,-3539,376,-2644,-140,-225,-91,149,175,-389
1,162045,-3539,376,-2644,-140,-225,-91,149,175,-389
1,162052,-3539,376,-2644,-140,-225,-91,149,175,-389
1,162057,-3539,376,-2644,-140,-225,-91,149,175,-389
1,162063,-3533,376,-2646,-140,-218,-95,149,175,-389
1,162068,-3533,376,-2646,-140,-218,-95,149,175,-389
1,162074,-3533,376,-2646,-140,-218,-95,149,175,-389
1,162079,-3535,379,-2641,-139,-217,-97,158,178,-396
1,162085,-3535,379,-2641,-139,-217,-97,158,178,-396
1,162089,-3535,379,-2641,-139,-217,-97,158,178,-396
1,162096,-3535,379,-2641,-139,-217,-97,158,178,-396
1,162101,-3535,379,-2642,-140,-220,-92,158,178,-396
1,162107,-3535,379,-2642,-140,-220,-92,158,178,-396
1,162112,-3535,379,-2642,-140,-220,-92,158,178,-396
1,162118,-3535,379,-2642,-140,-220,-92,158,178,-396
1,162123,-3533,379,-2641,-135,-218,-95,158,178,-396
1,162129,-3533,379,-2641,-135,-218,-95,158,178,-396
1,162135,-3533,379,-2641,-135,-218,-95,158,178,-396
1,162140,-3536,378,-2645,-142,-222,-83,158,178,-396
1,162145,-3536,378,-2645,-142,-222,-83,158,178,-396
1,162151,-3536,378,-2645,-142,-222,-83,158,178,-396
1,162156,-3536,378,-2645,-142,-222,-83,158,178,-396
1,162162,-3537,378,-2644,-143,-223,-93,158,178,-396
1,162167,-3537,378,-2644,-143,-223,-93,158,178,-396
1,162172,-3537,378,-2644,-143,-223,-93,158,178,-396
1,162179,-3537,378,-2644,-143,-223,-93,158,178,-396
1,162184,-3537,378,-2644,-143,-223,-93,158,178,-396
1,162190,-3537,378,-2644,-143,-223,-93,158,178,-396
1,162195,-3537,378,-2644,-143,-223,-93,158,178,-396
1,162201,-3538,377,-2638,-142,-214,-93,154,176,-400
1,162206,-3538,377,-2638,-142,-214,-93,154,176,-400
1,162212,-3538,377,-2638,-142,-214,-93,154,176,-400
1,162217,-3538,377,-2638,-142,-214,-93,154,176,-400
1,162224,-3534,377,-2640,-140,-218,-96,154,176,-400
1,162229,-3534,377,-2640,-140,-218,-96,154,176,-400
1,162234,-3534,377,-2640,-140,-218,-96,154,176,-400
1,162239,-3534,378,-2643,-149,-221,-100,154,176,-400
1,162245,-3534,378,-2643,-149,-221,-100,154,176,-400
1,162251,-3534,378,-2643,-149,-221,-100,154,176,-400
1,162256,-3534,378,-2643,-149,-221,-100,154,176,-400
1,162263,-3536,379,-2643,-142,-219,-88,154,176,-400
1,162268,-3536,379,-2643,-142,-219,-88,154,176,-400
1,162274,-3536,379,-2643,-142,-219,-88,154,176,-400
1,162279,-3537,375,-2639,-139,-223,-96,154,176,-400
1,162285,-3537,375,-2639,-139,-223,-96,154,176,-400
1,162289,-3537,375,-2639,-139,-223,-96,154,176,-400
1,162295,-3537,375,-2639,-139,-223,-96,154,176,-400
1,162300,-3533,376,-2641,-135,-221,-88,154,176,-400
1,162307,-3533,376,-2641,-135,-221,-88,154,176,-400
1,162312,-3533,376,-2641,-135,-221,-88,154,176,-400
1,162317,-3533,376,-2641,-135,-221,-88,154,176,-400
1,162323,-3534,378,-2639,-140,-218,-87,151,175,-391
1,162328,-3534,378,-2639,-140,-218,-87,151,175,-391
1,162333,-3534,378,-2639,-140,-218,-87,151,175,-391
1,162339,-3535,377,-2643,-145,-213,-94,151,175,-391
1,162344,-3535,377,-2643,-145,-213,-94,151,175,-391
1,162351,-3535,377,-2643,-145,-213,-94,151,175,-391
1,162356,-3535,377,-2643,-145,-213,-94,151,175,-391
1,162362,-3535,377,-2643,-145,-213,-94,151,175,-391
1,162367,-3535,377,-2643,-145,-213,-94,151,175,-391
1,162372,-3535,377,-2643,-145,-213,-94,151,175,-391
1,162378,-3535,377,-2643,-145,-213,-94,151,175,-391
1,162383,-3537,376,-2646,-133,-220,-94,151,175,-391
1,162388,-3537,376,-2646,-133,-220,-94,151,175,-391
1,162395,-3537,376,-2646,-133,-220,-94,151,175,-391
1,162400,-3535,377,-2642,-138,-219,-102,151,175,-391
1,162406,-3535,377,-2642,-138,-219,-102,151,175,-391
1,162411,-3535,377,-2642,-138,-219,-102,151,175,-391
1,162416,-3535,377,-2642,-138,-219,-102,151,175,-391
1,162422,-3536,377,-2642,-142,-220,-93,151,175,-391
1,162427,-3536,377,-2642,-142,-220,-93,151,175,-391
1,162434,-3536,377,-2642,-142,-220,-93,151,175,-391
1,162439,-3538,379,-2643,-142,-216,-96,151,175,-391
1,162445,-3538,379,-2643,-142,-216,-96,154,176,-406
1,162451,-3538,379,-2643,-142,-216,-96,154,176,-406
1,162456,-3538,379,-2643,-142,-216,-96,154,176,-406
1,162462,-3537,376,-2638,-138,-216,-86,154,176,-406
1,162467,-3537,376,-2638,-138,-216,-86,154,176,-406
1,162473,-3537,376,-2638,-138,-216,-86,154,176,-406
1,162479,-3537,376,-2638,-138,-216,-86,154,176,-406
1,162485,-3537,375,-2642,-139,-218,-88,154,176,-406
1,162490,-3537,375,-2642,-139,-218,-88,154,176,-406
1,162495,-3537,375,-2642,-139,-218,-88,154,176,-406
1,162500,-3535,379,-2640,-131,-220,-97,154,176,-406
1,162506,-3535,379,-2640,-131,-220,-97,154,176,-406
1,162512,-3535,379,-2640,-131,-220,-97,154,176,-406
1,162518,-3535,379,-2640,-131,-220,-97,154,176,-406
1,162523,-3535,379,-2642,-141,-217,-97,154,176,-406
1,162529,-3535,379,-2642,-141,-217,-97,154,176,-406
1,162535,-3535,379,-2642,-141,-217,-97,154,176,-406
1,162540,-3534,375,-2642,-136,-226,-97,154,176,-406
1,162546,-3534,375,-2642,-136,-226,-97,154,176,-406
1,162551,-3534,375,-2642,-136,-226,-97,154,176,-406
1,162556,-3534,375,-2642,-136,-226,-97,154,176,-406
1,162562,-3530,379,-2643,-136,-215,-95,154,180,-398
1,162568,-3530,379,-2643,-136,-215,-95,154,180,-398
1,162573,-3530,379,-2643,-136,-215,-95,154,180,-398
1,162579,-3530,379,-2643,-136,-215,-95,154,180,-398
1,162583,-3535,378,-2637,-139,-221,-91,154,180,-398
1,162588,-3535,378,-2637,-139,-221,-91,154,180,-398
1,162594,-3535,378,-2637,-139,-221,-91,154,180,-398
1,162599,-3536,375,-2641,-136,-227,-93,154,180,-398
1,162606,-3536,375,-2641,-136,-227,-93,154,180,-398
1,162611,-3536,375,-2641,-136,-227,-93,154,180,-398
1,162617,-3536,375,-2641,-136,-227,-93,154,180,-398
1,162622,-3538,377,-2642,-140,-223,-95,154,180,-398
1,162627,-3538,377,-2642,-140,-223,-95,154,180,-398
1,162632,-3538,377,-2642,-140,-223,-95,154,180,-398
1,162638,-3538,377,-2642,-140,-223,-95,154,180,-398
1,162644,-3538,378,-2644,-144,-215,-94,154,180,-398
1,162650,-3538,378,-2644,-144,-215,-94,154,180,-398
1,162655,-3538,378,-2644,-144,-215,-94,154,180,-398
1,162661,-3534,378,-2644,-140,-217,-93,154,180,-398
1,162666,-3534,378,-2644,-140,-217,-93,154,180,-398
1,162671,-3534,378,-2644,-140,-217,-93,154,180,-398
1,162677,-3534,378,-2644,-140,-217,-93,154,180,-398
1,162683,-3532,378,-2639,-135,-209,-91,154,180,-398
1,162689,-3532,378,-2639,-135,-209,-91,154,180,-398
1,162695,-3532,378,-2639,-135,-209,-91,154,180,-398
1,162700,-3536,379,-2638,-135,-217,-92,156,180,-396
1,162706,-3536,379,-2638,-135,-217,-92,156,180,-396
1,162711,-3536,379,-2638,-135,-217,-92,156,180,-396
1,162717,-3536,379,-2638,-135,-217,-92,156,180,-396
1,162722,-3538,376,-2646,-143,-220,-95,156,180,-396
1,162728,-3538,376,-2646,-143,-220,-95,156,180,-396
1,162734,-3538,376,-2646,-143,-220,-95,156,180,-396
1,162739,-3538,376,-2646,-143,-220,-95,156,180,-396
1,162744,-3537,375,-2639,-134,-217,-99,156,180,-396
1,162750,-3537,375,-2639,-134,-217,-99,156,180,-396
1,162755,-3537,375,-2639,-134,-217,-99,156,180,-396
1,162761,-3534,376,-2642,-133,-212,-102,156,180,-396
1,162766,-3534,376,-2642,-133,-212,-102,156,180,-396
1,162772,-3534,376,-2642,-133,-212,-102,156,180,-396
1,162778,-3534,376,-2642,-133,-212,-102,156,180,-396
1,162783,-3534,378,-2640,-137,-224,-100,156,180,-396
1,162789,-3534,378,-2640,-137,-224,-100,156,180,-396
1,162794,-3534,378,-2640,-137,-224,-100,156,180,-396
1,162799,-3535,377,-2646,-135,-216,-99,156,180,-396
1,162805,-3535,377,-2646,-135,-216,-99,156,180,-396
1,162811,-3535,377,-2646,-135,-216,-99,156,180,-396
1,162817,-3535,377,-2646,-135,-216,-99,156,180,-396
1,162822,-3535,377,-2646,-135,-216,-99,161,175,-405
1,162827,-3535,377,-2646,-135,-216,-99,161,175,-405
1,162833,-3535,377,-2646,-135,-216,-99,161,175,-405
1,162838,-3535,377,-2646,-135,-216,-99,161,175,-405
1,162843,-3539,375,-2642,-137,-214,-91,161,175,-405
1,162849,-3539,375,-2642,-137,-214,-91,161,175,-405
1,162854,-3539,375,-2642,-137,-214,-91,161,175,-405
1,162860,-3533,377,-2647,-134,-214,-93,161,175,-405
1,162866,-3533,377,-2647,-134,-214,-93,161,175,-405
1,162871,-3533,377,-2647,-134,-214,-93,161,175,-405
1,162877,-3533,377,-2647,-134,-214,-93,161,175,-405
1,162882,-3533,376,-2642,-131,-219,-89,161,175,-405
1,162887,-3533,376,-2642,-131,-219,-89,161,175,-405
1,162893,-3533,376,-2642,-131,-219,-89,161,175,-405
1,162898,-3533,376,-2642,-131,-219,-89,161,175,-405
1,162904,-3536,377,-2644,-143,-213,-91,161,175,-405
1,162910,-3536,377,-2644,-143,-213,-91,161,175,-405
1,162915,-3536,377,-2644,-143,-213,-91,161,175,-405
1,162921,-3536,378,-2644,-144,-216,-91,161,175,-405
1,162926,-3536,378,-2644,-144,-216,-91,161,175,-405
1,162931,-3536,378,-2644,-144,-216,-91,161,175,-405
1,162937,-3536,378,-2644,-144,-216,-91,161,175,-405
1,162942,-3534,378,-2647,-137,-226,-93,152,180,-386
1,162948,-3534,378,-2647,-137,-226,-93,152,180,-386
1,162954,-3534,378,-2647,-137,-226,-93,152,180,-386
1,162959,-3534,378,-2647,-137,-226,-93,152,180,-386
1,162964,-3537,376,-2648,-140,-219,-93,152,180,-386
1,162970,-3537,376,-2648,-140,-219,-93,152,180,-386
1,162975,-3537,376,-2648,-140,-219,-93,152,180,-386
1,162980,-3535,379,-2641,-141,-222,-90,152,180,-386
1,162987,-3535,379,-2641,-141,-222,-90,152,180,-386
1,162992,-3535,379,-2641,-141,-222,-90,152,180,-386
1,162998,-3535,379,-2641,-141,-222,-90,152,180,-386
1,163003,-3536,378,-2644,-141,-233,-87,152,180,-386
1,163009,-3536,378,-2644,-141,-233,-87,152,180,-386
1,163014,-3536,378,-2644,-141,-233,-87,152,180,-386
1,163019,-3536,378,-2644,-141,-233,-87,152,180,-386
1,163024,-3536,379,-2648,-137,-216,-98,152,180,-386
1,163031,-3536,379,-2648,-137,-216,-98,152,180,-386
1,163036,-3536,379,-2648,-137,-216,-98,152,180,-386
1,163041,-3535,375,-2645,-139,-214,-93,152,180,-386
1,163047,-3535,375,-2645,-139,-214,-93,152,180,-386
1,163052,-3535,375,-2645,-139,-214,-93,152,180,-386
1,163057,-3535,375,-2645,-139,-214,-93,152,180,-386
1,163063,-3535,378,-2642,-133,-208,-88,154,180,-396
1,163068,-3535,378,-2642,-133,-208,-88,154,180,-396
1,163073,-3535,378,-2642,-133,-208,-88,154,180,-396
1,163079,-3535,378,-2642,-133,-208,-88,154,180,-396
1,163084,-3537,379,-2641,-135,-216,-90,154,180,-396
1,163090,-3537,379,-2641,-135,-216,-90,154,180,-396
1,163095,-3537,379,-2641,-135,-216,-90,154,180,-396
1,163100,-3536,376,-2640,-131,-216,-94,154,180,-396
1,163106,-3536,376,-2640,-131,-216,-94,154,180,-396
1,163111,-3536,376,-2640,-131,-216,-94,154,180,-396
1,163117,-3536,376,-2640,-131,-216,-94,154,180,-396
1,163123,-3536,378,-2647,-133,-218,-91,154,180,-396
1,163129,-3536,378,-2647,-133,-218,-91,154,180,-396
1,163134,-3536,378,-2647,-133,-218,-91,154,180,-396
1,163140,-3536,377,-2645,-137,-223,-98,154,180,-396
1,163145,-3536,377,-2645,-137,-223,-98,154,180,-396
1,163151,-3536,377,-2645,-137,-223,-98,154,180,-396
1,163156,-3536,377,-2645,-137,-223,-98,154,180,-396
1,163163,-3536,378,-2641,-142,-227,-100,154,180,-396
1,163168,-3536,378,-2641,-142,-227,-100,154,180,-396
1,163173,-3536,378,-2641,-142,-227,-100,154,180,-396
1,163178,-3536,378,-2641,-142,-227,-100,154,180,-396
1,163184,-3536,381,-2637,-139,-219,-90,154,178,-398
1,163189,-3536,381,-2637,-139,-219,-90,154,178,-398
1,163195,-3536,381,-2637,-139,-219,-90,154,178,-398
1,163201,-3536,376,-2638,-139,-215,-96,154,178,-398
1,163207,-3536,376,-2638,-139,-215,-96,154,178,-398
1,163212,-3536,376,-2638,-139,-215,-96,154,178,-398
1,163218,-3536,376,-2638,-139,-215,-96,154,178,-398
1,163223,-3536,377,-2642,-135,-215,-96,154,178,-398
1,163229,-3536,377,-2642,-135,-215,-96,154,178,-398
1,163235,-3536,377,-2642,-135,-215,-96,154,178,-398
1,163241,-3535,376,-2641,-139,-221,-97,154,178,-398
1,163247,-3535,376,-2641,-139,-221,-97,154,178,-398
1,163252,-3535,376,-2641,-139,-221,-97,154,178,-398
1,163258,-3535,376,-2641,-139,-221,-97,154,178,-398
1,163263,-3536,377,-2646,-141,-218,-91,154,178,-398
1,163269,-3536,377,-2646,-141,-218,-91,154,178,-398
1,163275,-3536,377,-2646,-141,-218,-91,154,178,-398
1,163280,-3537,376,-2643,-133,-220,-96,154,178,-398
1,163286,-3537,376,-2643,-133,-220,-96,154,178,-398
1,163292,-3537,376,-2643,-133,-220,-96,154,178,-398
1,163297,-3537,376,-2643,-133,-220,-96,154,178,-398
1,163302,-3535,374,-2641,-133,-216,-97,159,179,-387
1,163308,-3535,374,-2641,-133,-216,-97,159,179,-387
1,163313,-3535,374,-2641,-133,-216,-97,159,179,-387
1,163318,-3535,374,-2641,-133,-216,-97,159,179,-387
1,163324,-3537,378,-2644,-138,-219,-96,159,179,-387
1,163330,-3537,378,-2644,-138,-219,-96,159,179,-387
1,163335,-3537,378,-2644,-138,-219,-96,159,179,-387
1,163341,-3537,378,-2644,-138,-219,-96,159,179,-387
1,163346,-3537,378,-2644,-138,-219,-96,159,179,-387
1,163352,-3537,378,-2644,-138,-219,-96,159,179,-387
1,163357,-3537,378,-2644,-138,-219,-96,159,179,-387
1,163362,-3535,377,-2645,-139,-222,-92,159,179,-387
1,163367,-3535,377,-2645,-139,-222,-92,159,179,-387
1,163373,-3535,377,-2645,-139,-222,-92,159,179,-387
1,163379,-3535,377,-2645,-139,-222,-92,159,179,-387
1,163384,-3534,379,-2643,-141,-218,-96,159,179,-387
1,163389,-3534,379,-2643,-141,-218,-96,159,179,-387
1,163395,-3534,379,-2643,-141,-218,-96,159,179,-387
1,163401,-3533,378,-2645,-139,-217,-96,159,179,-387
1,163406,-3533,378,-2645,-139,-217,-96,159,179,-387
1,163412,-3533,378,-2645,-139,-217,-96,159,179,-387
1,163418,-3533,378,-2645,-139,-217,-96,159,179,-387
1,163423,-3534,377,-2641,-134,-220,-99,159,179,-387
1,163429,-3534,377,-2641,-134,-220,-99,159,179,-387
1,163434,-3534,377,-2641,-134,-220,-99,159,179,-387
1,163440,-3534,377,-2641,-134,-220,-99,159,179,-387
1,163445,-3536,376,-2638,-137,-213,-89,152,180,-394
1,163451,-3536,376,-2638,-137,-213,-89,152,180,-394
1,163457,-3536,376,-2638,-137,-213,-89,152,180,-394
1,163462,-3536,374,-2642,-136,-215,-87,152,180,-394
1,163468,-3536,374,-2642,-136,-215,-87,152,180,-394
1,163473,-3536,374,-2642,-136,-215,-87,152,180,-394
1,163479,-3536,374,-2642,-136,-215,-87,152,180,-394
1,163484,-3536,376,-2641,-142,-221,-96,152,180,-394
1,163489,-3536,376,-2641,-142,-221,-96,152,180,-394
1,163495,-3536,376,-2641,-142,-221,-96,152,180,-394
1,163501,-3537,378,-2642,-139,-220,-97,152,180,-394
1,163506,-3537,378,-2642,-139,-220,-97,152,180,-394
1,163511,-3537,378,-2642,-139,-220,-97,152,180,-394
1,163517,-3537,378,-2642,-139,-220,-97,152,180,-394
1,163522,-3536,374,-2643,-138,-214,-88,152,180,-394
1,163528,-3536,374,-2643,-138,-214,-88,152,180,-394
1,163533,-3536,374,-2643,-138,-214,-88,152,180,-394
1,163538,-3536,374,-2643,-138,-214,-88,152,180,-394
1,163545,-3534,378,-2644,-142,-227,-93,152,180,-394
1,163550,-3534,378,-2644,-142,-227,-93,152,180,-394
1,163555,-3534,378,-2644,-142,-227,-93,152,180,-394
1,163561,-3537,376,-2637,-139,-220,-95,153,181,-393
1,163566,-3537,376,-2637,-139,-220,-95,153,181,-393
1,163572,-3537,376,-2637,-139,-220,-95,153,181,-393
1,163578,-3537,376,-2637,-139,-220,-95,153,181,-393
1,163584,-3536,377,-2636,-142,-220,-94,153,181,-393
1,163589,-3536,377,-2636,-142,-220,-94,153,181,-393
1,163595,-3536,377,-2636,-142,-220,-94,153,181,-393
1,163600,-3535,377,-2640,-141,-219,-91,153,181,-393
1,163606,-3535,377,-2640,-141,-219,-91,153,181,-393
1,163612,-3535,377,-2640,-141,-219,-91,153,181,-393
1,163617,-3535,377,-2640,-141,-219,-91,153,181,-393
1,163622,-3534,378,-2641,-138,-217,-87,153,181,-393
1,163629,-3534,378,-2641,-138,-217,-87,153,181,-393
1,163635,-3534,378,-2641,-138,-217,-87,153,181,-393
1,163640,-3534,378,-2641,-138,-217,-87,153,181,-393
1,163645,-3535,377,-2643,-140,-221,-93,153,181,-393
1,163651,-3535,377,-2643,-140,-221,-93,153,181,-393
1,163656,-3535,377,-2643,-140,-221,-93,153,181,-393
1,163662,-3538,378,-2641,-137,-213,-90,153,181,-393
1,163668,-3538,378,-2641,-137,-213,-90,153,181,-393
1,163674,-3538,378,-2641,-137,-213,-90,153,181,-393
1,163679,-3538,378,-2641,-137,-213,-90,153,181,-393
1,163685,-3538,376,-2637,-142,-215,-95,151,175,-391
1,163690,-3538,376,-2637,-142,-215,-95,151,175,-391
1,163696,-3538,376,-2637,-142,-215,-95,151,175,-391
1,163701,-3534,378,-2643,-140,-214,-99,151,175,-391
1,163706,-3534,378,-2643,-140,-214,-99,151,175,-391
1,163713,-3534,378,-2643,-140,-214,-99,151,175,-391
1,163718,-3534,378,-2643,-140,-214,-99,151,175,-391
1,163724,-3537,376,-2643,-140,-210,-98,151,175,-391
1,163729,-3537,376,-2643,-140,-210,-98,151,175,-391
1,163735,-3537,376,-2643,-140,-210,-98,151,175,-391
1,163740,-3537,376,-2643,-140,-210,-98,151,175,-391
1,163745,-3535,380,-2640,-140,-222,-102,151,175,-391
1,163750,-3535,380,-2640,-140,-222,-102,151,175,-391
1,163757,-3535,380,-2640,-140,-222,-102,151,175,-391
1,163763,-3533,378,-2641,-143,-219,-93,151,175,-391
1,163768,-3533,378,-2641,-143,-219,-93,151,175,-391
1,163773,-3533,378,-2641,-143,-219,-93,151,175,-391
1,163779,-3533,378,-2641,-143,-219,-93,151,175,-391
1,163784,-3539,376,-2641,-137,-208,-98,151,175,-391
1,163790,-3539,376,-2641,-137,-208,-98,151,175,-391
1,163795,-3539,376,-2641,-137,-208,-98,151,175,-391
1,163802,-3538,378,-2641,-138,-210,-96,154,184,-396
1,163807,-3538,378,-2641,-138,-210,-96,154,184,-396
1,163812,-3538,378,-2641,-138,-210,-96,154,184,-396
1,163818,-3538,378,-2641,-138,-210,-96,154,184,-396
1,163823,-3537,376,-2645,-138,-215,-93,154,184,-396
1,163829,-3537,376,-2645,-138,-215,-93,154,184,-396
1,163834,-3537,376,-2645,-138,-215,-93,154,184,-396
1,163840,-3537,376,-2645,-138,-215,-93,154,184,-396
1,163846,-3538,377,-2642,-142,-222,-88,154,184,-396
1,163851,-3538,377,-2642,-142,-222,-88,154,184,-396
1,163856,-3538,377,-2642,-142,-222,-88,154,184,-396
1,163861,-3538,377,-2642,-141,-209,-93,154,184,-396
1,163867,-3538,377,-2642,-141,-209,-93,154,184,-396
1,163872,-3538,377,-2642,-141,-209,-93,154,184,-396
1,163878,-3538,377,-2642,-141,-209,-93,154,184,-396
1,163884,-3538,380,-2646,-140,-218,-98,154,184,-396
1,163889,-3538,380,-2646,-140,-218,-98,154,184,-396
1,163895,-3538,380,-2646,-140,-218,-98,154,184,-396
1,163900,-3538,380,-2646,-140,-218,-98,154,184,-396
1,163906,-3538,375,-2648,-141,-220,-91,154,184,-396
1,163911,-3538,375,-2648,-141,-220,-91,154,184,-396
1,163916,-3538,375,-2648,-141,-220,-91,154,184,-396
1,163922,-3537,378,-2647,-143,-218,-103,153,179,-395
1,163928,-3537,378,-2647,-143,-218,-103,153,179,-395
1,163933,-3537,378,-2647,-143,-218,-103,153,179,-395
1,163939,-3537,378,-2647,-143,-218,-103,153,179,-395
1,163944,-3537,378,-2637,-140,-219,-99,153,179,-395
1,163950,-3537,378,-2637,-140,-219,-99,153,179,-395
1,163955,-3537,378,-2637,-140,-219,-99,153,179,-395
1,163960,-3537,378,-2637,-140,-219,-99,153,179,-395
1,163965,-3538,377,-2640,-141,-214,-94,153,179,-395
1,163972,-3538,377,-2640,-141,-214,-94,153,179,-395
1,163977,-3538,377,-2640,-141,-214,-94,153,179,-395
1,163983,-3539,376,-2636,-139,-212,-87,153,179,-395
1,163988,-3539,376,-2636,-139,-212,-87,153,179,-395
1,163993,-3539,376,-2636,-139,-212,-87,153,179,-395
1,163998,-3539,376,-2636,-139,-212,-87,153,179,-395
1,164003,-3538,376,-2647,-143,-221,-95,153,179,-395
1,164008,-3538,376,-2647,-143,-221,-95,153,179,-395
1,164015,-3538,376,-2647,-143,-221,-95,153,179,-395
1,164021,-3538,376,-2647,-143,-221,-95,153,179,-395
1,164026,-3535,377,-2648,-141,-221,-97,153,179,-395
1,164032,-3535,377,-2648,-141,-221,-97,153,179,-395
1,164038,-3535,377,-2648,-141,-221,-97,153,179,-395
1,164043,-3535,379,-2649,-139,-223,-88,157,181,-395
1,164049,-3535,379,-2649,-139,-223,-88,157,181,-395
1,164056,-3535,379,-2649,-139,-223,-88,157,181,-395
1,164061,-3535,379,-2649,-139,-223,-88,157,181,-395
1,164066,-3535,380,-2638,-139,-225,-91,157,181,-395
1,164072,-3535,380,-2638,-139,-225,-91,157,181,-395
1,164078,-3535,380,-2638,-139,-225,-91,157,181,-395
1,164083,-3536,376,-2640,-137,-225,-104,157,181,-395
1,164089,-3536,376,-2640,-137,-225,-104,157,181,-395
1,164094,-3536,376,-2640,-137,-225,-104,157,181,-395
1,164100,-3536,376,-2640,-137,-225,-104,157,181,-395
1,164106,-3536,378,-2642,-136,-221,-105,157,181,-395
1,164111,-3536,378,-2642,-136,-221,-105,157,181,-395
1,164117,-3536,378,-2642,-136,-221,-105,157,181,-395
1,164124,-3534,377,-2640,-136,-218,-95,157,181,-395
1,164129,-3534,377,-2640,-136,-218,-95,157,181,-395
1,164135,-3534,377,-2640,-136,-218,-95,157,181,-395
1,164141,-3534,377,-2640,-136,-218,-95,157,181,-395
1,164146,-3536,378,-2645,-142,-209,-97,157,181,-395
1,164151,-3536,378,-2645,-142,-209,-97,157,181,-395
1,164156,-3536,378,-2645,-142,-209,-97,157,181,-395
1,164161,-3536,376,-2646,-144,-217,-98,157,181,-395
1,164167,-3536,376,-2646,-144,-217,-98,157,181,-395
1,164172,-3536,376,-2646,-144,-217,-98,157,181,-395
1,164177,-3536,376,-2646,-144,-217,-98,157,181,-395
1,164183,-3535,377,-2641,-140,-214,-97,154,180,-388
1,164188,-3535,377,-2641,-140,-214,-97,154,180,-388
1,164193,-3535,377,-2641,-140,-214,-97,154,180,-388
1,164199,-3535,377,-2641,-140,-214,-97,154,180,-388
1,164204,-3536,376,-2640,-143,-219,-94,154,180,-388
1,164210,-3536,376,-2640,-143,-219,-94,154,180,-388
1,164215,-3536,376,-2640,-143,-219,-94,154,180,-388
1,164220,-3536,376,-2640,-143,-219,-94,154,180,-388
1,164226,-3536,379,-2642,-132,-223,-92,154,180,-388
1,164232,-3536,379,-2642,-132,-223,-92,154,180,-388
1,164236,-3536,379,-2642,-132,-223,-92,154,180,-388
1,164242,-3532,379,-2633,-137,-220,-102,154,180,-388
1,164247,-3532,379,-2633,-137,-220,-102,154,180,-388
1,164252,-3532,379,-2633,-137,-220,-102,154,180,-388
1,164257,-3532,379,-2633,-137,-220,-102,154,180,-388
1,164263,-3537,380,-2641,-141,-222,-104,154,180,-388
1,164269,-3537,380,-2641,-141,-222,-104,154,180,-388
1,164274,-3537,380,-2641,-141,-222,-104,154,180,-388
1,164280,-3537,380,-2641,-141,-222,-104,154,180,-388
1,164285,-3536,379,-2645,-136,-227,-98,154,180,-388
1,164290,-3536,379,-2645,-136,-227,-98,154,180,-388
1,164295,-3536,379,-2645,-136,-227,-98,154,180,-388
1,164300,-3536,379,-2645,-136,-227,-98,154,180,-388
1,164306,-3539,378,-2640,-136,-225,-92,150,172,-394
1,164312,-3539,378,-2640,-136,-225,-92,150,172,-394
1,164317,-3539,378,-2640,-136,-225,-92,150,172,-394
1,164323,-3534,377,-2647,-139,-220,-90,150,172,-394
1,164328,-3534,377,-2647,-139,-220,-90,150,172,-394
1,164334,-3534,377,-2647,-139,-220,-90,150,172,-394
1,164339,-3534,377,-2647,-139,-220,-90,150,172,-394
1,164344,-3538,375,-2640,-134,-217,-92,150,172,-394
1,164349,-3538,375,-2640,-134,-217,-92,150,172,-394
1,164356,-3538,375,-2640,-134,-217,-92,150,172,-394
1,164361,-3538,375,-2640,-134,-217,-92,150,172,-394
1,164367,-3535,378,-2642,-136,-219,-97,150,172,-394
1,164372,-3535,378,-2642,-136,-219,-97,150,172,-394
1,164378,-3535,378,-2642,-136,-219,-97,150,172,-394
1,164383,-3536,377,-2639,-132,-213,-93,150,172,-394
1,164388,-3536,377,-2639,-132,-213,-93,150,172,-394
