imu,time,ax,ay,az,gx,gy,gz,mx,my,mz
1,247571,-5539,364,-580,-138,-223,-83,176,336,-176
1,247578,-5539,364,-580,-138,-223,-83,176,336,-176
1,247587,-5537,367,-580,-137,-221,-87,176,336,-176
1,247595,-5537,367,-580,-137,-221,-87,176,336,-176
1,247602,-5537,367,-580,-137,-221,-87,176,336,-176
1,247609,-5539,368,-580,-136,-221,-92,176,336,-176
1,247616,-5539,368,-580,-136,-221,-92,176,336,-176
1,247622,-5539,368,-580,-136,-221,-92,176,336,-176
1,247629,-5538,363,-587,-142,-223,-88,176,336,-176
1,247636,-5538,363,-587,-142,-223,-88,176,336,-176
1,247643,-5538,363,-587,-142,-223,-88,176,336,-176
1,247649,-5537,365,-585,-137,-227,-87,176,336,-176
1,247655,-5537,365,-585,-137,-227,-87,176,336,-176
1,247661,-5537,365,-585,-137,-227,-87,176,336,-176
1,247667,-5538,365,-586,-132,-220,-88,177,331,-177
1,247672,-5538,365,-586,-132,-220,-88,177,331,-177
1,247678,-5538,365,-586,-132,-220,-88,177,331,-177
1,247685,-5538,365,-586,-132,-220,-88,177,331,-177
1,247691,-5538,367,-584,-135,-219,-94,177,331,-177
1,247696,-5538,367,-584,-135,-219,-94,177,331,-177
1,247702,-5538,367,-584,-135,-219,-94,177,331,-177
1,247707,-5541,363,-583,-135,-224,-93,177,331,-177
1,247713,-5541,363,-583,-135,-224,-93,177,331,-177
1,247718,-5541,363,-583,-135,-224,-93,177,331,-177
1,247724,-5541,363,-583,-135,-224,-93,177,331,-177
1,247730,-5541,365,-583,-137,-226,-91,177,331,-177
1,247735,-5541,365,-583,-137,-226,-91,177,331,-177
1,247740,-5541,365,-583,-137,-226,-91,177,331,-177
1,247746,-5537,365,-586,-130,-215,-84,177,331,-177
1,247751,-5537,365,-586,-130,-215,-84,177,331,-177
1,247757,-5537,365,-586,-130,-215,-84,177,331,-177
1,247762,-5537,365,-586,-130,-215,-84,177,331,-177
1,247768,-5539,367,-583,-141,-224,-87,177,331,-177
1,247773,-5539,367,-583,-141,-224,-87,177,331,-177
1,247779,-5539,367,-583,-141,-224,-87,177,331,-177
1,247784,-5539,367,-583,-141,-224,-87,177,331,-177
1,247789,-5539,365,-582,-135,-226,-86,181,335,-175
1,247795,-5539,365,-582,-135,-226,-86,181,335,-175
1,247800,-5539,365,-582,-135,-226,-86,181,335,-175
1,247806,-5540,365,-579,-143,-229,-91,181,335,-175
1,247812,-5540,365,-579,-143,-229,-91,181,335,-175
1,247817,-5540,365,-579,-143,-229,-91,181,335,-175
1,247823,-5540,365,-579,-143,-229,-91,181,335,-175
1,247828,-5536,366,-585,-135,-224,-90,181,335,-175
1,247833,-5536,366,-585,-135,-224,-90,181,335,-175
1,247839,-5536,366,-585,-135,-224,-90,181,335,-175
1,247844,-5536,366,-585,-135,-224,-90,181,335,-175
1,247851,-5538,365,-581,-129,-222,-91,181,335,-175
1,247855,-5538,365,-581,-129,-222,-91,181,335,-175
1,247861,-5538,365,-581,-129,-222,-91,181,335,-175
1,247866,-5535,366,-584,-129,-224,-98,181,335,-175
1,247872,-5535,366,-584,-129,-224,-98,181,335,-175
1,247877,-5535,366,-584,-129,-224,-98,181,335,-175
1,247882,-5535,366,-584,-129,-224,-98,181,335,-175
1,247888,-5541,369,-582,-134,-223,-93,181,335,-175
1,247894,-5541,369,-582,-134,-223,-93,181,335,-175
1,247900,-5541,369,-582,-134,-223,-93,181,335,-175
1,247906,-5537,363,-582,-138,-231,-85,172,336,-178
1,247912,-5537,363,-582,-138,-231,-85,172,336,-178
1,247917,-5537,363,-582,-138,-231,-85,172,336,-178
1,247922,-5537,363,-582,-138,-231,-85,172,336,-178
1,247927,-5540,365,-579,-131,-228,-88,172,336,-178
1,247932,-5540,365,-579,-131,-228,-88,172,336,-178
1,247938,-5540,365,-579,-131,-228,-88,172,336,-178
1,247943,-5540,365,-579,-131,-228,-88,172,336,-178
1,247948,-5535,368,-585,-141,-223,-88,172,336,-178
1,247954,-5535,368,-585,-141,-223,-88,172,336,-178
1,247959,-5535,368,-585,-141,-223,-88,172,336,-178
1,247965,-5535,368,-585,-141,-223,-88,172,336,-178
1,247970,-5540,366,-586,-145,-225,-88,172,336,-178
1,247976,-5540,366,-586,-145,-225,-88,172,336,-178
1,247982,-5540,366,-586,-145,-225,-88,172,336,-178
1,247987,-5537,364,-583,-143,-230,-96,172,336,-178
1,247992,-5537,364,-583,-143,-230,-96,172,336,-178
1,247998,-5537,364,-583,-143,-230,-96,172,336,-178
1,248003,-5537,364,-583,-143,-230,-96,172,336,-178
1,248008,-5536,363,-585,-140,-232,-100,172,336,-178
1,248013,-5536,363,-585,-140,-232,-100,172,336,-178
1,248019,-5536,363,-585,-140,-232,-100,172,336,-178
1,248024,-5536,363,-585,-140,-232,-100,172,336,-178
1,248030,-5540,366,-581,-139,-227,-90,180,330,-176
1,248035,-5540,366,-581,-139,-227,-90,180,330,-176
1,248041,-5540,366,-581,-139,-227,-90,180,330,-176
1,248046,-5537,362,-580,-140,-229,-84,180,330,-176
1,248052,-5537,362,-580,-140,-229,-84,180,330,-176
1,248057,-5537,362,-580,-140,-229,-84,180,330,-176
1,248064,-5537,362,-580,-140,-229,-84,180,330,-176
1,248068,-5535,366,-587,-142,-222,-96,180,330,-176
1,248074,-5535,366,-587,-142,-222,-96,180,330,-176
1,248080,-5535,366,-587,-142,-222,-96,180,330,-176
1,248085,-5535,366,-587,-142,-222,-96,180,330,-176
1,248090,-5535,365,-584,-139,-224,-91,180,330,-176
1,248096,-5535,365,-584,-139,-224,-91,180,330,-176
1,248101,-5535,365,-584,-139,-224,-91,180,330,-176
1,248108,-5537,367,-582,-137,-232,-88,180,330,-176
1,248113,-5537,367,-582,-137,-232,-88,180,330,-176
1,248118,-5537,367,-582,-137,-232,-88,180,330,-176
1,248123,-5537,367,-582,-137,-232,-88,180,330,-176
1,248129,-5539,365,-581,-136,-222,-85,180,330,-176
1,248134,-5539,365,-581,-136,-222,-85,180,330,-176
1,248140,-5539,365,-581,-136,-222,-85,180,330,-176
1,248144,-5539,365,-581,-136,-222,-85,180,330,-176
1,248151,-5539,368,-586,-140,-231,-90,180,330,-176
1,248156,-5539,368,-586,-140,-231,-90,180,330,-176
1,248161,-5539,368,-586,-140,-231,-90,180,330,-176
1,248167,-5538,365,-579,-142,-227,-83,169,331,-173
1,248172,-5538,365,-579,-142,-227,-83,169,331,-173
1,248178,-5538,365,-579,-142,-227,-83,169,331,-173
1,248183,-5538,365,-579,-142,-227,-83,169,331,-173
1,248189,-5538,365,-584,-138,-224,-91,169,331,-173
1,248196,-5538,365,-584,-138,-224,-91,169,331,-173
1,248200,-5538,365,-584,-138,-224,-91,169,331,-173
1,248206,-5537,366,-586,-134,-227,-88,169,331,-173
1,248211,-5537,366,-586,-134,-227,-88,169,331,-173
1,248217,-5537,366,-586,-134,-227,-88,169,331,-173
1,248222,-5537,366,-586,-134,-227,-88,169,331,-173
1,248227,-5536,363,-589,-140,-227,-94,169,331,-173
1,248233,-5536,363,-589,-140,-227,-94,169,331,-173
1,248239,-5536,363,-589,-140,-227,-94,169,331,-173
1,248245,-5536,363,-589,-140,-227,-94,169,331,-173
1,248250,-5535,362,-582,-136,-227,-88,169,331,-173
1,248255,-5535,362,-582,-136,-227,-88,169,331,-173
1,248260,-5535,362,-582,-136,-227,-88,169,331,-173
1,248265,-5535,362,-582,-136,-227,-88,169,331,-173
1,248271,-5536,366,-582,-135,-227,-97,169,331,-173
1,248276,-5536,366,-582,-135,-227,-97,169,331,-173
1,248282,-5536,366,-582,-135,-227,-97,169,331,-173
1,248288,-5536,364,-580,-139,-226,-96,175,337,-175
1,248294,-5536,364,-580,-139,-226,-96,175,337,-175
1,248299,-5536,364,-580,-139,-226,-96,175,337,-175
1,248304,-5536,364,-580,-139,-226,-96,175,337,-175
1,248309,-5536,364,-586,-142,-226,-91,175,337,-175
1,248315,-5536,364,-586,-142,-226,-91,175,337,-175
1,248321,-5536,364,-586,-142,-226,-91,175,337,-175
1,248327,-5540,366,-583,-132,-219,-85,175,337,-175
1,248332,-5540,366,-583,-132,-219,-85,175,337,-175
1,248337,-5540,366,-583,-132,-219,-85,175,337,-175
1,248342,-5540,366,-583,-132,-219,-85,175,337,-175
1,248348,-5535,369,-584,-143,-221,-87,175,337,-175
1,248353,-5535,369,-584,-143,-221,-87,175,337,-175
1,248359,-5535,369,-584,-143,-221,-87,175,337,-175
1,248365,-5535,369,-584,-143,-221,-87,175,337,-175
1,248371,-5540,364,-584,-135,-226,-89,175,337,-175
1,248376,-5540,364,-584,-135,-226,-89,175,337,-175
1,248382,-5540,364,-584,-135,-226,-89,175,337,-175
1,248387,-5539,366,-579,-139,-223,-86,175,337,-175
1,248392,-5539,366,-579,-139,-223,-86,175,337,-175
1,248398,-5539,366,-579,-139,-223,-86,175,337,-175
1,248403,-5539,366,-579,-139,-223,-86,175,337,-175
1,248410,-5541,366,-582,-143,-225,-89,176,330,-174
1,248415,-5541,366,-582,-143,-225,-89,176,330,-174
1,248420,-5541,366,-582,-143,-225,-89,176,330,-174
1,248425,-5541,366,-582,-143,-225,-89,176,330,-174
1,248431,-5538,364,-585,-135,-221,-91,176,330,-174
1,248436,-5538,364,-585,-135,-221,-91,176,330,-174
1,248442,-5538,364,-585,-135,-221,-91,176,330,-174
1,248448,-5537,367,-582,-141,-216,-87,176,330,-174
1,248452,-5537,367,-582,-141,-216,-87,176,330,-174
1,248458,-5537,367,-582,-141,-216,-87,176,330,-174
1,248464,-5537,367,-582,-141,-216,-87,176,330,-174
1,248469,-5539,368,-585,-139,-228,-90,176,330,-174
1,248474,-5539,368,-585,-139,-228,-90,176,330,-174
1,248479,-5539,368,-585,-139,-228,-90,176,330,-174
1,248484,-5539,368,-585,-139,-228,-90,176,330,-174
1,248492,-5539,366,-587,-143,-234,-98,176,330,-174
1,248498,-5539,366,-587,-143,-234,-98,176,330,-174
1,248503,-5539,366,-587,-143,-234,-98,176,330,-174
1,248509,-5536,366,-580,-136,-228,-93,176,330,-174
1,248513,-5536,366,-580,-136,-228,-93,176,330,-174
1,248519,-5536,366,-580,-136,-228,-93,176,330,-174
1,248525,-5536,366,-580,-136,-228,-93,176,330,-174
1,248530,-5539,367,-582,-130,-231,-95,176,336,-174
1,248536,-5539,367,-582,-130,-231,-95,176,336,-174
1,248542,-5539,367,-582,-130,-231,-95,176,336,-174
1,248547,-5538,362,-580,-139,-226,-93,176,336,-174
1,248553,-5538,362,-580,-139,-226,-93,176,336,-174
1,248557,-5538,362,-580,-139,-226,-93,176,336,-174
1,248562,-5538,362,-580,-139,-226,-93,176,336,-174
1,248568,-5535,367,-580,-140,-219,-100,176,336,-174
1,248573,-5535,367,-580,-140,-219,-100,176,336,-174
1,248580,-5535,367,-580,-140,-219,-100,176,336,-174
1,248585,-5535,367,-580,-140,-219,-100,176,336,-174
1,248590,-5537,363,-586,-137,-224,-89,176,336,-174
1,248596,-5537,363,-586,-137,-224,-89,176,336,-174
1,248601,-5537,363,-586,-137,-224,-89,176,336,-174
1,248606,-5536,367,-587,-138,-212,-88,176,336,-174
1,248612,-5536,367,-587,-138,-212,-88,176,336,-174
1,248617,-5536,367,-587,-138,-212,-88,176,336,-174
1,248623,-5536,367,-587,-138,-212,-88,176,336,-174
1,248628,-5540,363,-584,-138,-214,-89,176,336,-174
1,248634,-5540,363,-584,-138,-214,-89,176,336,-174
1,248640,-5540,363,-584,-138,-214,-89,176,336,-174
1,248645,-5540,363,-584,-138,-214,-89,176,336,-174
1,248650,-5538,367,-585,-138,-222,-93,175,337,-183
1,248655,-5538,367,-585,-138,-222,-93,175,337,-183
1,248662,-5538,367,-585,-138,-222,-93,175,337,-183
1,248667,-5538,365,-577,-146,-222,-92,175,337,-183
1,248672,-5538,365,-577,-146,-222,-92,175,337,-183
1,248677,-5538,365,-577,-146,-222,-92,175,337,-183
1,248682,-5538,365,-577,-146,-222,-92,175,337,-183
1,248687,-5537,365,-584,-140,-221,-95,175,337,-183
1,248693,-5537,365,-584,-140,-221,-95,175,337,-183
1,248698,-5537,365,-584,-140,-221,-95,175,337,-183
1,248704,-5537,365,-584,-140,-221,-95,175,337,-183
1,248709,-5537,368,-585,-135,-217,-90,175,337,-183
1,248715,-5537,368,-585,-135,-217,-90,175,337,-183
1,248720,-5537,368,-585,-135,-217,-90,175,337,-183
1,248726,-5537,368,-585,-135,-217,-90,175,337,-183
1,248731,-5540,363,-581,-142,-224,-91,175,337,-183
1,248737,-5540,363,-581,-142,-224,-91,175,337,-183
1,248742,-5540,363,-581,-142,-224,-91,175,337,-183
1,248749,-5537,363,-588,-143,-231,-89,175,337,-183
1,248754,-5537,363,-588,-143,-231,-89,175,337,-183
1,248759,-5537,363,-588,-143,-231,-89,175,337,-183
1,248765,-5537,363,-588,-143,-231,-89,175,337,-183
1,248770,-5537,364,-585,-139,-221,-82,169,331,-183
1,248775,-5537,364,-585,-139,-221,-82,169,331,-183
1,248781,-5537,364,-585,-139,-221,-82,169,331,-183
1,248786,-5539,365,-584,-134,-224,-87,169,331,-183
1,248793,-5539,365,-584,-134,-224,-87,169,331,-183
1,248798,-5539,365,-584,-134,-224,-87,169,331,-183
1,248804,-5539,365,-584,-134,-224,-87,169,331,-183
1,248809,-5537,366,-586,-138,-227,-84,169,331,-183
1,248814,-5537,366,-586,-138,-227,-84,169,331,-183
1,248820,-5537,366,-586,-138,-227,-84,169,331,-183
1,248825,-5537,366,-586,-138,-227,-84,169,331,-183
1,248832,-5537,364,-585,-133,-227,-84,169,331,-183
1,248837,-5537,364,-585,-133,-227,-84,169,331,-183
1,248842,-5537,364,-585,-133,-227,-84,169,331,-183
1,248847,-5536,364,-582,-137,-232,-92,169,331,-183
1,248853,-5536,364,-582,-137,-232,-92,169,331,-183
1,248858,-5536,364,-582,-137,-232,-92,169,331,-183
1,248864,-5536,364,-582,-137,-232,-92,169,331,-183
1,248869,-5537,363,-585,-146,-227,-93,169,331,-183
1,248875,-5537,363,-585,-146,-227,-93,169,331,-183
1,248881,-5537,363,-585,-146,-227,-93,169,331,-183
1,248886,-5537,363,-585,-146,-227,-93,169,331,-183
1,248892,-5536,362,-583,-140,-220,-88,169,331,-183
1,248898,-5536,362,-583,-140,-220,-88,169,331,-183
1,248903,-5536,362,-583,-140,-220,-88,169,331,-183
1,248908,-5535,364,-581,-132,-238,-92,173,335,-177
1,248914,-5535,364,-581,-132,-238,-92,173,335,-177
1,248920,-5535,364,-581,-132,-238,-92,173,335,-177
1,248925,-5535,364,-581,-132,-238,-92,173,335,-177
1,248930,-5536,366,-583,-136,-233,-94,173,335,-177
1,248936,-5536,366,-583,-136,-233,-94,173,335,-177
1,248942,-5536,366,-583,-136,-233,-94,173,335,-177
1,248947,-5540,363,-583,-143,-230,-90,173,335,-177
1,248952,-5540,363,-583,-143,-230,-90,173,335,-177
1,248957,-5540,363,-583,-143,-230,-90,173,335,-177
1,248964,-5540,363,-583,-143,-230,-90,173,335,-177
1,248969,-5538,362,-587,-137,-231,-89,173,335,-177
1,248974,-5538,362,-587,-137,-231,-89,173,335,-177
1,248980,-5538,362,-587,-137,-231,-89,173,335,-177
1,248985,-5538,362,-587,-137,-231,-89,173,335,-177
1,248990,-5536,364,-588,-136,-220,-97,173,335,-177
1,248996,-5536,364,-588,-136,-220,-97,173,335,-177
1,249003,-5536,364,-588,-136,-220,-97,173,335,-177
1,249009,-5537,366,-584,-130,-234,-93,173,335,-177
1,249014,-5537,366,-584,-130,-234,-93,173,335,-177
1,249020,-5537,366,-584,-130,-234,-93,173,335,-177
1,249025,-5537,366,-584,-130,-234,-93,173,335,-177
1,249030,-5537,362,-579,-135,-233,-85,176,336,-178
1,249036,-5537,362,-579,-135,-233,-85,176,336,-178
1,249041,-5537,362,-579,-135,-233,-85,176,336,-178
1,249047,-5537,364,-585,-143,-230,-87,176,336,-178
1,249053,-5537,364,-585,-143,-230,-87,176,336,-178
1,249058,-5537,364,-585,-143,-230,-87,176,336,-178
1,249063,-5537,364,-585,-143,-230,-87,176,336,-178
1,249069,-5537,363,-583,-140,-217,-85,176,336,-178
1,249074,-5537,363,-583,-140,-217,-85,176,336,-178
1,249080,-5537,363,-583,-140,-217,-85,176,336,-178
1,249085,-5537,363,-583,-140,-217,-85,176,336,-178
1,249092,-5539,364,-587,-141,-216,-91,176,336,-178
1,249098,-5539,364,-587,-141,-216,-91,176,336,-178
1,249103,-5539,364,-587,-141,-216,-91,176,336,-178
1,249108,-5539,366,-587,-136,-227,-84,176,336,-178
1,249113,-5539,366,-587,-136,-227,-84,176,336,-178
1,249119,-5539,366,-587,-136,-227,-84,176,336,-178
1,249124,-5539,366,-587,-136,-227,-84,176,336,-178
1,249131,-5542,365,-581,-139,-224,-88,176,336,-178
1,249136,-5542,365,-581,-139,-224,-88,176,336,-178
1,249141,-5542,365,-581,-139,-224,-88,176,336,-178
1,249147,-5542,365,-581,-139,-224,-88,176,336,-178
1,249152,-5540,363,-578,-135,-226,-86,177,331,-181
1,249158,-5540,363,-578,-135,-226,-86,177,331,-181
1,249163,-5540,363,-578,-135,-226,-86,177,331,-181
1,249169,-5539,362,-583,-142,-230,-93,177,331,-181
1,249175,-5539,362,-583,-142,-230,-93,177,331,-181
1,249180,-5539,362,-583,-142,-230,-93,177,331,-181
1,249186,-5539,362,-583,-142,-230,-93,177,331,-181
1,249191,-5538,365,-582,-141,-220,-97,177,331,-181
1,249196,-5538,365,-582,-141,-220,-97,177,331,-181
1,249201,-5538,365,-582,-141,-220,-97,177,331,-181
1,249206,-5538,365,-582,-141,-220,-97,177,331,-181
1,249212,-5537,369,-581,-140,-224,-92,177,331,-181
1,249218,-5537,369,-581,-140,-224,-92,177,331,-181
1,249223,-5537,369,-581,-140,-224,-92,177,331,-181
1,249229,-5537,364,-579,-145,-223,-95,177,331,-181
1,249234,-5537,364,-579,-145,-223,-95,177,331,-181
1,249240,-5537,364,-579,-145,-223,-95,177,331,-181
1,249245,-5537,364,-579,-145,-223,-95,177,331,-181
1,249251,-5537,365,-580,-136,-229,-99,177,331,-181
1,249256,-5537,365,-580,-136,-229,-99,177,331,-181
1,249263,-5537,365,-580,-136,-229,-99,177,331,-181
1,249269,-5536,364,-577,-135,-222,-87,164,332,-176
1,249275,-5536,364,-577,-135,-222,-87,164,332,-176
1,249281,-5536,364,-577,-135,-222,-87,164,332,-176
1,249286,-5536,364,-577,-135,-222,-87,164,332,-176
1,249291,-5537,367,-583,-125,-222,-91,164,332,-176
1,249296,-5537,367,-583,-125,-222,-91,164,332,-176
1,249302,-5537,367,-583,-125,-222,-91,164,332,-176
1,249308,-5541,366,-587,-130,-220,-87,164,332,-176
1,249313,-5541,366,-587,-130,-220,-87,164,332,-176
1,249318,-5541,366,-587,-130,-220,-87,164,332,-176
1,249324,-5541,366,-587,-130,-220,-87,164,332,-176
1,249328,-5539,364,-585,-133,-214,-85,164,332,-176
1,249334,-5539,364,-585,-133,-214,-85,164,332,-176
1,249339,-5539,364,-585,-133,-214,-85,164,332,-176
1,249346,-5539,364,-585,-133,-214,-85,164,332,-176
1,249351,-5540,364,-584,-135,-220,-92,164,332,-176
1,249357,-5540,364,-584,-135,-220,-92,164,332,-176
1,249362,-5540,364,-584,-135,-220,-92,164,332,-176
1,249367,-5541,363,-586,-139,-223,-95,164,332,-176
1,249372,-5541,363,-586,-139,-223,-95,164,332,-176
1,249378,-5541,363,-586,-139,-223,-95,164,332,-176
1,249383,-5541,363,-586,-139,-223,-95,164,332,-176
1,249390,-5537,365,-581,-138,-226,-94,179,327,-171
1,249395,-5537,365,-581,-138,-226,-94,179,327,-171
1,249400,-5537,365,-581,-138,-226,-94,179,327,-171
1,249406,-5537,365,-581,-138,-226,-94,179,327,-171
1,249411,-5536,364,-585,-138,-223,-96,179,327,-171
1,249416,-5536,364,-585,-138,-223,-96,179,327,-171
1,249421,-5536,364,-585,-138,-223,-96,179,327,-171
1,249426,-5536,364,-585,-138,-223,-96,179,327,-171
1,249433,-5538,364,-587,-139,-222,-83,179,327,-171
1,249438,-5538,364,-587,-139,-222,-83,179,327,-171
1,249443,-5538,364,-587,-139,-222,-83,179,327,-171
1,249449,-5538,363,-581,-135,-226,-90,179,327,-171
1,249454,-5538,363,-581,-135,-226,-90,179,327,-171
1,249460,-5538,363,-581,-135,-226,-90,179,327,-171
1,249464,-5538,363,-581,-135,-226,-90,179,327,-171
1,249470,-5537,362,-585,-131,-213,-86,179,327,-171
1,249476,-5537,362,-585,-131,-213,-86,179,327,-171
1,249482,-5537,362,-585,-131,-213,-86,179,327,-171
1,249487,-5537,362,-585,-131,-213,-86,179,327,-171
1,249492,-5539,367,-579,-137,-212,-95,179,327,-171
1,249497,-5539,367,-579,-137,-212,-95,179,327,-171
1,249503,-5539,367,-579,-137,-212,-95,179,327,-171
1,249508,-5538,363,-584,-142,-220,-84,179,327,-171
1,249515,-5538,363,-584,-142,-220,-84,179,327,-171
1,249520,-5538,363,-584,-142,-220,-84,179,327,-171
1,249526,-5538,363,-584,-142,-220,-84,179,327,-171
1,249531,-5539,365,-580,-134,-223,-81,172,336,-172
1,249537,-5539,365,-580,-134,-223,-81,172,336,-172
1,249542,-5539,365,-580,-134,-223,-81,172,336,-172
1,249547,-5540,363,-582,-138,-216,-87,172,336,-172
1,249552,-5540,363,-582,-138,-216,-87,172,336,-172
1,249561,-5540,363,-582,-138,-216,-87,172,336,-172
1,249566,-5540,363,-582,-138,-216,-87,172,336,-172
1,249572,-5539,361,-588,-131,-216,-97,172,336,-172
1,249577,-5539,361,-588,-131,-216,-97,172,336,-172
1,249582,-5539,361,-588,-131,-216,-97,172,336,-172
1,249587,-5540,363,-586,-137,-220,-94,172,336,-172
1,249593,-5540,363,-586,-137,-220,-94,172,336,-172
1,249598,-5540,363,-586,-137,-220,-94,172,336,-172
1,249605,-5540,363,-586,-137,-220,-94,172,336,-172
1,249610,-5537,364,-589,-130,-223,-90,172,336,-172
1,249615,-5537,364,-589,-130,-223,-90,172,336,-172
1,249621,-5537,364,-589,-130,-223,-90,172,336,-172
1,249627,-5537,364,-589,-130,-223,-90,172,336,-172
1,249632,-5538,363,-582,-137,-225,-95,172,336,-172
1,249637,-5538,363,-582,-137,-225,-95,172,336,-172
1,249643,-5538,363,-582,-137,-225,-95,172,336,-172
1,249649,-5536,365,-582,-140,-216,-94,173,333,-175
1,249654,-5536,365,-582,-140,-216,-94,173,333,-175
1,249659,-5536,365,-582,-140,-216,-94,173,333,-175
1,249665,-5536,365,-582,-140,-216,-94,173,333,-175
1,249670,-5536,366,-584,-140,-222,-94,173,333,-175
1,249676,-5536,366,-584,-140,-222,-94,173,333,-175
1,249681,-5536,366,-584,-140,-222,-94,173,333,-175
1,249687,-5536,366,-584,-140,-222,-94,173,333,-175
1,249693,-5539,367,-583,-136,-226,-93,173,333,-175
1,249698,-5539,367,-583,-136,-226,-93,173,333,-175
1,249703,-5539,367,-583,-136,-226,-93,173,333,-175
1,249709,-5536,364,-582,-140,-217,-83,173,333,-175
1,249714,-5536,364,-582,-140,-217,-83,173,333,-175
1,249720,-5536,364,-582,-140,-217,-83,173,333,-175
1,249725,-5536,364,-582,-140,-217,-83,173,333,-175
1,249731,-5538,367,-579,-135,-227,-87,173,333,-175
1,249737,-5538,367,-579,-135,-227,-87,173,333,-175
1,249742,-5538,367,-579,-135,-227,-87,173,333,-175
1,249748,-5537,367,-587,-131,-227,-89,173,333,-175
1,249754,-5537,367,-587,-131,-227,-89,173,333,-175
1,249758,-5537,367,-587,-131,-227,-89,173,333,-175
1,249764,-5537,367,-587,-131,-227,-89,173,333,-175
1,249769,-5537,367,-586,-135,-220,-93,180,336,-170
1,249775,-5537,367,-586,-135,-220,-93,180,336,-170
1,249780,-5537,367,-586,-135,-220,-93,180,336,-170
1,249786,-5537,367,-586,-135,-220,-93,180,336,-170
1,249791,-5542,365,-582,-131,-229,-96,180,336,-170
1,249797,-5542,365,-582,-131,-229,-96,180,336,-170
1,249802,-5542,365,-582,-131,-229,-96,180,336,-170
1,249807,-5540,365,-582,-134,-226,-90,180,336,-170
1,249814,-5540,365,-582,-134,-226,-90,180,336,-170
1,249819,-5540,365,-582,-134,-226,-90,180,336,-170
1,249824,-5540,365,-582,-134,-226,-90,180,336,-170
1,249830,-5540,367,-587,-134,-222,-89,180,336,-170
1,249835,-5540,367,-587,-134,-222,-89,180,336,-170
1,249840,-5540,367,-587,-134,-222,-89,180,336,-170
1,249846,-5540,367,-587,-134,-222,-89,180,336,-170
1,249851,-5540,367,-587,-134,-222,-89,180,336,-170
1,249857,-5540,367,-587,-134,-222,-89,180,336,-170
1,249863,-5540,367,-587,-134,-222,-89,180,336,-170
1,249868,-5539,365,-585,-139,-223,-91,180,336,-170
1,249874,-5539,365,-585,-139,-223,-91,180,336,-170
1,249879,-5539,365,-585,-139,-223,-91,180,336,-170
1,249884,-5539,365,-585,-139,-223,-91,180,336,-170
1,249890,-5539,366,-581,-138,-223,-93,180,328,-178
1,249895,-5539,366,-581,-138,-223,-93,180,328,-178
1,249901,-5539,366,-581,-138,-223,-93,180,328,-178
1,249907,-5539,366,-581,-138,-223,-93,180,328,-178
1,249912,-5537,366,-578,-136,-211,-95,180,328,-178
1,249917,-5537,366,-578,-136,-211,-95,180,328,-178
1,249923,-5537,366,-578,-136,-211,-95,180,328,-178
1,249928,-5538,366,-585,-135,-214,-91,180,328,-178
1,249933,-5538,366,-585,-135,-214,-91,180,328,-178
1,249939,-5538,366,-585,-135,-214,-91,180,328,-178
1,249945,-5538,366,-585,-135,-214,-91,180,328,-178
1,249950,-5537,366,-581,-137,-226,-91,180,328,-178
1,249956,-5537,366,-581,-137,-226,-91,180,328,-178
1,249961,-5537,366,-581,-137,-226,-91,180,328,-178
1,249966,-5537,366,-581,-137,-226,-91,180,328,-178
1,249971,-5538,366,-587,-138,-227,-92,180,328,-178
1,249977,-5538,366,-587,-138,-227,-92,180,328,-178
1,249982,-5538,366,-587,-138,-227,-92,180,328,-178
1,249988,-5537,365,-587,-139,-221,-82,180,328,-178
1,249993,-5537,365,-587,-139,-221,-82,180,328,-178
1,249998,-5537,365,-587,-139,-221,-82,180,328,-178
1,250004,-5537,365,-587,-139,-221,-82,180,328,-178
1,250009,-5537,366,-583,-136,-224,-92,172,324,-172
1,250015,-5537,366,-583,-136,-224,-92,172,324,-172
1,250020,-5537,366,-583,-136,-224,-92,172,324,-172
1,250025,-5537,366,-583,-136,-224,-92,172,324,-172
1,250031,-5538,368,-584,-133,-229,-91,172,324,-172
1,250037,-5538,368,-584,-133,-229,-91,172,324,-172
1,250042,-5538,368,-584,-133,-229,-91,172,324,-172
1,250047,-5538,368,-584,-133,-229,-91,172,324,-172
1,250052,-5538,364,-585,-138,-228,-91,172,324,-172
1,250058,-5538,364,-585,-138,-228,-91,172,324,-172
1,250063,-5538,364,-585,-138,-228,-91,172,324,-172
1,250068,-5538,366,-587,-142,-223,-81,172,324,-172
1,250075,-5538,366,-587,-142,-223,-81,172,324,-172
1,250080,-5538,366,-587,-142,-223,-81,172,324,-172
1,250085,-5538,366,-587,-142,-223,-81,172,324,-172
1,250090,-5537,367,-585,-136,-217,-93,172,324,-172
1,250096,-5537,367,-585,-136,-217,-93,172,324,-172
1,250101,-5537,367,-585,-136,-217,-93,172,324,-172
1,250106,-5537,367,-585,-136,-217,-93,172,324,-172
1,250113,-5537,370,-581,-146,-211,-91,172,324,-172
1,250118,-5537,370,-581,-146,-211,-91,172,324,-172
1,250123,-5537,370,-581,-146,-211,-91,172,324,-172
1,250129,-5539,365,-584,-140,-212,-100,171,339,-177
1,250134,-5539,365,-584,-140,-212,-100,171,339,-177
1,250140,-5539,365,-584,-140,-212,-100,171,339,-177
1,250145,-5539,365,-584,-140,-212,-100,171,339,-177
1,250150,-5537,367,-583,-138,-219,-94,171,339,-177
1,250156,-5537,367,-583,-138,-219,-94,171,339,-177
1,250162,-5537,367,-583,-138,-219,-94,171,339,-177
1,250167,-5537,367,-583,-138,-219,-94,171,339,-177
1,250173,-5539,366,-583,-134,-227,-89,171,339,-177
1,250179,-5539,366,-583,-134,-227,-89,171,339,-177
1,250184,-5539,366,-583,-134,-227,-89,171,339,-177
1,250189,-5536,364,-589,-137,-228,-87,171,339,-177
1,250194,-5536,364,-589,-137,-228,-87,171,339,-177
1,250200,-5536,364,-589,-137,-228,-87,171,339,-177
1,250205,-5536,364,-589,-137,-228,-87,171,339,-177
1,250210,-5536,364,-583,-137,-226,-91,171,339,-177
1,250216,-5536,364,-583,-137,-226,-91,171,339,-177
1,250221,-5536,364,-583,-137,-226,-91,171,339,-177
1,250226,-5536,364,-583,-137,-226,-91,171,339,-177
1,250232,-5533,365,-581,-138,-219,-90,171,339,-177
1,250237,-5533,365,-581,-138,-219,-90,171,339,-177
1,250243,-5533,365,-581,-138,-219,-90,171,339,-177
1,250248,-5536,365,-589,-134,-224,-93,171,339,-177
1,250254,-5536,365,-589,-134,-224,-93,171,339,-177
1,250259,-5536,365,-589,-134,-224,-93,171,339,-177
1,250264,-5536,365,-589,-134,-224,-93,171,339,-177
1,250269,-5535,363,-584,-134,-217,-89,178,334,-170
1,250275,-5535,363,-584,-134,-217,-89,178,334,-170
1,250280,-5535,363,-584,-134,-217,-89,178,334,-170
1,250287,-5535,363,-584,-134,-217,-89,178,334,-170
1,250292,-5536,362,-586,-141,-226,-88,178,334,-170
1,250298,-5536,362,-586,-141,-226,-88,178,334,-170
1,250304,-5536,362,-586,-141,-226,-88,178,334,-170
1,250310,-5539,366,-584,-138,-233,-96,178,334,-170
1,250316,-5539,366,-584,-138,-233,-96,178,334,-170
1,250321,-5539,366,-584,-138,-233,-96,178,334,-170
1,250327,-5539,366,-584,-138,-233,-96,178,334,-170
1,250332,-5539,366,-584,-138,-233,-96,178,334,-170
1,250338,-5539,366,-584,-138,-233,-96,178,334,-170
1,250343,-5539,366,-584,-138,-233,-96,178,334,-170
1,250348,-5537,363,-586,-132,-228,-87,178,334,-170
1,250354,-5537,363,-586,-132,-228,-87,178,334,-170
1,250359,-5537,363,-586,-132,-228,-87,178,334,-170
1,250364,-5537,363,-586,-132,-228,-87,178,334,-170
1,250371,-5536,363,-583,-138,-223,-83,178,334,-170
1,250376,-5536,363,-583,-138,-223,-83,178,334,-170
1,250382,-5536,363,-583,-138,-223,-83,178,334,-170
1,250387,-5536,363,-583,-138,-223,-83,178,334,-170
1,250393,-5538,363,-582,-137,-227,-90,171,341,-179
1,250399,-5538,363,-582,-137,-227,-90,171,341,-179
1,250404,-5538,363,-582,-137,-227,-90,171,341,-179
1,250409,-5537,364,-583,-141,-222,-94,171,341,-179
1,250415,-5537,364,-583,-141,-222,-94,171,341,-179
1,250421,-5537,364,-583,-141,-222,-94,171,341,-179
1,250426,-5537,364,-583,-141,-222,-94,171,341,-179
1,250432,-5537,367,-586,-143,-225,-96,171,341,-179
1,250438,-5537,367,-586,-143,-225,-96,171,341,-179
1,250443,-5537,367,-586,-143,-225,-96,171,341,-179
1,250448,-5537,363,-587,-141,-218,-90,171,341,-179
1,250455,-5537,363,-587,-141,-218,-90,171,341,-179
1,250460,-5537,363,-587,-141,-218,-90,171,341,-179
1,250465,-5537,363,-587,-141,-218,-90,171,341,-179
1,250471,-5540,365,-585,-139,-222,-84,171,341,-179
1,250477,-5540,365,-585,-139,-222,-84,171,341,-179
1,250482,-5540,365,-585,-139,-222,-84,171,341,-179
1,250488,-5540,365,-585,-139,-222,-84,171,341,-179
1,250493,-5535,366,-590,-137,-224,-88,171,341,-179
1,250500,-5535,366,-590,-137,-224,-88,171,341,-179
1,250505,-5535,366,-590,-137,-224,-88,171,341,-179
1,250510,-5538,364,-582,-136,-221,-89,170,332,-176
1,250516,-5538,364,-582,-136,-221,-89,170,332,-176
1,250521,-5538,364,-582,-136,-221,-89,170,332,-176
1,250526,-5538,364,-582,-136,-221,-89,170,332,-176
1,250532,-5536,366,-582,-142,-221,-96,170,332,-176
1,250537,-5536,366,-582,-142,-221,-96,170,332,-176
1,250543,-5536,366,-582,-142,-221,-96,170,332,-176
1,250549,-5537,366,-587,-141,-221,-92,170,332,-176
1,250554,-5537,366,-587,-141,-221,-92,170,332,-176
1,250560,-5537,366,-587,-141,-221,-92,170,332,-176
1,250565,-5537,366,-587,-141,-221,-92,170,332,-176
1,250570,-5538,365,-583,-146,-224,-86,170,332,-176
1,250576,-5538,365,-583,-146,-224,-86,170,332,-176
1,250582,-5538,365,-583,-146,-224,-86,170,332,-176
1,250588,-5538,365,-583,-146,-224,-86,170,332,-176
1,250593,-5540,367,-582,-141,-225,-82,170,332,-176
1,250599,-5540,367,-582,-141,-225,-82,170,332,-176
1,250605,-5540,367,-582,-141,-225,-82,170,332,-176
1,250610,-5539,366,-584,-137,-227,-82,170,332,-176
1,250616,-5539,366,-584,-137,-227,-82,170,332,-176
1,250621,-5539,366,-584,-137,-227,-82,170,332,-176
1,250628,-5539,366,-584,-137,-227,-82,170,332,-176
1,250634,-5537,364,-584,-139,-222,-87,170,342,-172
1,250639,-5537,364,-584,-139,-222,-87,170,342,-172
1,250644,-5537,364,-584,-139,-222,-87,170,342,-172
1,250649,-5539,365,-584,-141,-220,-92,170,342,-172
1,250654,-5539,365,-584,-141,-220,-92,170,342,-172
1,250659,-5539,365,-584,-141,-220,-92,170,342,-172
1,250665,-5539,365,-584,-141,-220,-92,170,342,-172
1,250671,-5535,365,-582,-142,-225,-89,170,342,-172
1,250677,-5535,365,-582,-142,-225,-89,170,342,-172
1,250683,-5535,365,-582,-142,-225,-89,170,342,-172
1,250688,-5535,365,-582,-142,-225,-89,170,342,-172
1,250693,-5538,364,-581,-144,-219,-88,170,342,-172
1,250698,-5538,364,-581,-144,-219,-88,170,342,-172
1,250704,-5538,364,-581,-144,-219,-88,170,342,-172
1,250710,-5542,364,-583,-145,-224,-87,170,342,-172
1,250716,-5542,364,-583,-145,-224,-87,170,342,-172
1,250721,-5542,364,-583,-145,-224,-87,170,342,-172
1,250727,-5542,364,-583,-145,-224,-87,170,342,-172
1,250732,-5537,362,-587,-141,-222,-94,170,342,-172
1,250737,-5537,362,-587,-141,-222,-94,170,342,-172
1,250743,-5537,362,-587,-141,-222,-94,170,342,-172
1,250748,-5537,362,-587,-141,-222,-94,170,342,-172
1,250754,-5536,367,-585,-134,-226,-91,176,330,-172
1,250760,-5536,367,-585,-134,-226,-91,176,330,-172
1,250764,-5536,367,-585,-134,-226,-91,176,330,-172
1,250769,-5536,363,-585,-128,-228,-91,176,330,-172
1,250775,-5536,363,-585,-128,-228,-91,176,330,-172
1,250781,-5536,363,-585,-128,-228,-91,176,330,-172
1,250786,-5536,363,-585,-128,-228,-91,176,330,-172
1,250791,-5538,364,-587,-136,-226,-95,176,330,-172
1,250797,-5538,364,-587,-136,-226,-95,176,330,-172
1,250803,-5538,364,-587,-136,-226,-95,176,330,-172
1,250808,-5538,364,-587,-136,-226,-95,176,330,-172
1,250813,-5538,364,-585,-140,-222,-90,176,330,-172
1,250819,-5538,364,-585,-140,-222,-90,176,330,-172
1,250825,-5538,364,-585,-140,-222,-90,176,330,-172
1,250830,-5537,363,-587,-140,-218,-87,176,330,-172
1,250835,-5537,363,-587,-140,-218,-87,176,330,-172
1,250841,-5537,363,-587,-140,-218,-87,176,330,-172
1,250847,-5537,363,-587,-140,-218,-87,176,330,-172
1,250852,-5538,365,-583,-143,-229,-91,176,330,-172
1,250858,-5538,365,-583,-143,-229,-91,176,330,-172
1,250863,-5538,365,-583,-143,-229,-91,176,330,-172
1,250869,-5536,364,-584,-140,-232,-89,176,336,-168
1,250874,-5536,364,-584,-140,-232,-89,176,336,-168
1,250880,-5536,364,-584,-140,-232,-89,176,336,-168
1,250885,-5536,364,-584,-140,-232,-89,176,336,-168
1,250891,-5538,365,-585,-141,-229,-87,176,336,-168
1,250896,-5538,365,-585,-141,-229,-87,176,336,-168
1,250901,-5538,365,-585,-141,-229,-87,176,336,-168
1,250907,-5538,365,-585,-141,-229,-87,176,336,-168
1,250912,-5541,364,-580,-140,-221,-88,176,336,-168
1,250917,-5541,364,-580,-140,-221,-88,176,336,-168
1,250923,-5541,364,-580,-140,-221,-88,176,336,-168
1,250929,-5535,363,-587,-137,-222,-92,176,336,-168
1,250934,-5535,363,-587,-137,-222,-92,176,336,-168
1,250940,-5535,363,-587,-137,-222,-92,176,336,-168
1,250945,-5535,363,-587,-137,-222,-92,176,336,-168
1,250950,-5537,369,-585,-140,-224,-86,176,336,-168
1,250956,-5537,369,-585,-140,-224,-86,176,336,-168
1,250961,-5537,369,-585,-140,-224,-86,176,336,-168
1,250968,-5537,369,-585,-140,-224,-86,176,336,-168
1,250973,-5540,364,-585,-136,-226,-92,176,336,-168
1,250979,-5540,364,-585,-136,-226,-92,176,336,-168
1,250985,-5540,364,-585,-136,-226,-92,176,336,-168
1,250990,-5538,366,-582,-137,-221,-94,176,336,-168
1,250996,-5538,366,-582,-137,-221,-94,176,336,-168
1,251001,-5538,366,-582,-137,-221,-94,176,336,-168
1,251006,-5538,366,-582,-137,-221,-94,176,336,-168
1,251012,-5536,366,-585,-142,-232,-87,181,329,-173
1,251017,-5536,366,-585,-142,-232,-87,181,329,-173
1,251023,-5536,366,-585,-142,-232,-87,181,329,-173
1,251028,-5536,366,-585,-142,-232,-87,181,329,-173
1,251033,-5537,364,-580,-143,-220,-89,181,329,-173
1,251038,-5537,364,-580,-143,-220,-89,181,329,-173
1,251044,-5537,364,-580,-143,-220,-89,181,329,-173
1,251049,-5536,364,-586,-138,-222,-91,181,329,-173
1,251056,-5536,364,-586,-138,-222,-91,181,329,-173
1,251061,-5536,364,-586,-138,-222,-91,181,329,-173
1,251066,-5536,364,-586,-138,-222,-91,181,329,-173
1,251071,-5537,365,-581,-142,-223,-96,181,329,-173
1,251077,-5537,365,-581,-142,-223,-96,181,329,-173
1,251082,-5537,365,-581,-142,-223,-96,181,329,-173
1,251088,-5537,365,-581,-142,-223,-96,181,329,-173
1,251094,-5536,364,-584,-150,-213,-90,181,329,-173
1,251100,-5536,364,-584,-150,-213,-90,181,329,-173
1,251105,-5536,364,-584,-150,-213,-90,181,329,-173
1,251110,-5536,364,-585,-138,-219,-94,181,329,-173
1,251115,-5536,364,-585,-138,-219,-94,181,329,-173
1,251121,-5536,364,-585,-138,-219,-94,181,329,-173
1,251126,-5536,364,-585,-138,-219,-94,181,329,-173
1,251132,-5536,365,-584,-139,-224,-88,171,337,-177
1,251138,-5536,365,-584,-139,-224,-88,171,337,-177
1,251144,-5536,365,-584,-139,-224,-88,171,337,-177
1,251149,-5537,362,-588,-140,-225,-86,171,337,-177
1,251155,-5537,362,-588,-140,-225,-86,171,337,-177
1,251160,-5537,362,-588,-140,-225,-86,171,337,-177
1,251165,-5537,362,-588,-140,-225,-86,171,337,-177
1,251170,-5538,363,-585,-140,-227,-106,171,337,-177
1,251176,-5538,363,-585,-140,-227,-106,171,337,-177
1,251182,-5538,363,-585,-140,-227,-106,171,337,-177
1,251188,-5538,363,-585,-140,-227,-106,171,337,-177
1,251192,-5537,364,-585,-137,-225,-95,171,337,-177
1,251197,-5537,364,-585,-137,-225,-95,171,337,-177
1,251203,-5537,364,-585,-137,-225,-95,171,337,-177
1,251209,-5538,366,-582,-143,-229,-95,171,337,-177
1,251214,-5538,366,-582,-143,-229,-95,171,337,-177
1,251220,-5538,366,-582,-143,-229,-95,171,337,-177
1,251226,-5538,366,-582,-143,-229,-95,171,337,-177
1,251231,-5537,364,-585,-133,-222,-95,171,337,-177
1,251236,-5537,364,-585,-133,-222,-95,171,337,-177
1,251242,-5537,364,-585,-133,-222,-95,171,337,-177
1,251247,-5537,364,-585,-133,-222,-95,171,337,-177
1,251253,-5537,363,-577,-136,-221,-98,175,335,-181
1,251258,-5537,363,-577,-136,-221,-98,175,335,-181
1,251265,-5537,363,-577,-136,-221,-98,175,335,-181
1,251270,-5534,361,-585,-135,-225,-93,175,335,-181
1,251276,-5534,361,-585,-135,-225,-93,175,335,-181
1,251281,-5534,361,-585,-135,-225,-93,175,335,-181
1,251287,-5534,361,-585,-135,-225,-93,175,335,-181
1,251293,-5537,366,-587,-138,-224,-93,175,335,-181
1,251298,-5537,366,-587,-138,-224,-93,175,335,-181
1,251303,-5537,366,-587,-138,-224,-93,175,335,-181
1,251310,-5537,362,-587,-139,-229,-94,175,335,-181
1,251315,-5537,362,-587,-139,-229,-94,175,335,-181
1,251321,-5537,362,-587,-139,-229,-94,175,335,-181
1,251327,-5537,362,-587,-139,-229,-94,175,335,-181
1,251333,-5535,369,-588,-135,-227,-90,175,335,-181
1,251338,-5535,369,-588,-135,-227,-90,175,335,-181
1,251344,-5535,369,-588,-135,-227,-90,175,335,-181
1,251350,-5537,366,-585,-135,-224,-84,175,335,-181
1,251355,-5537,366,-585,-135,-224,-84,175,335,-181
1,251361,-5537,366,-585,-135,-224,-84,175,335,-181
1,251366,-5537,366,-585,-135,-224,-84,175,335,-181
1,251371,-5536,363,-581,-138,-224,-85,173,335,-175
1,251376,-5536,363,-581,-138,-224,-85,173,335,-175
1,251381,-5536,363,-581,-138,-224,-85,173,335,-175
1,251386,-5536,363,-581,-138,-224,-85,173,335,-175
1,251393,-5537,362,-579,-135,-223,-91,173,335,-175
1,251398,-5537,362,-579,-135,-223,-91,173,335,-175
1,251403,-5537,362,-579,-135,-223,-91,173,335,-175
1,251409,-5537,362,-579,-135,-223,-91,173,335,-175
1,251414,-5538,365,-584,-138,-219,-103,173,335,-175
1,251419,-5538,365,-584,-138,-219,-103,173,335,-175
1,251425,-5538,365,-584,-138,-219,-103,173,335,-175
1,251430,-5535,367,-586,-133,-227,-97,173,335,-175
1,251436,-5535,367,-586,-133,-227,-97,173,335,-175
1,251441,-5535,367,-586,-133,-227,-97,173,335,-175
1,251446,-5535,367,-586,-133,-227,-97,173,335,-175
1,251451,-5538,364,-582,-142,-221,-88,173,335,-175
1,251456,-5538,364,-582,-142,-221,-88,173,335,-175
1,251461,-5538,364,-582,-142,-221,-88,173,335,-175
1,251466,-5538,364,-582,-142,-221,-88,173,335,-175
1,251472,-5538,367,-586,-133,-216,-87,173,335,-175
1,251478,-5538,367,-586,-133,-216,-87,173,335,-175
1,251483,-5538,367,-586,-133,-216,-87,173,335,-175
1,251489,-5538,367,-586,-133,-216,-87,173,335,-175
1,251494,-5538,363,-586,-134,-217,-95,179,339,-175
1,251500,-5538,363,-586,-134,-217,-95,179,339,-175
1,251505,-5538,363,-586,-134,-217,-95,179,339,-175
1,251510,-5538,365,-581,-140,-223,-93,179,339,-175
1,251516,-5538,365,-581,-140,-223,-93,179,339,-175
1,251522,-5538,365,-581,-140,-223,-93,179,339,-175
1,251528,-5538,365,-581,-140,-223,-93,179,339,-175
1,251534,-5539,366,-578,-129,-229,-89,179,339,-175
1,251540,-5539,366,-578,-129,-229,-89,179,339,-175
1,251545,-5539,366,-578,-129,-229,-89,179,339,-175
1,251551,-5537,364,-579,-130,-223,-87,179,339,-175
1,251556,-5537,364,-579,-130,-223,-87,179,339,-175
1,251561,-5537,364,-579,-130,-223,-87,179,339,-175
1,251567,-5537,364,-579,-130,-223,-87,179,339,-175
1,251572,-5532,365,-580,-135,-225,-88,179,339,-175
1,251578,-5532,365,-580,-135,-225,-88,179,339,-175
1,251583,-5532,365,-580,-135,-225,-88,179,339,-175
1,251588,-5532,365,-580,-135,-225,-88,179,339,-175
1,251594,-5537,366,-585,-139,-217,-91,179,339,-175
1,251598,-5537,366,-585,-139,-217,-91,179,339,-175
1,251604,-5537,366,-585,-139,-217,-91,179,339,-175
1,251610,-5536,362,-589,-140,-226,-93,179,339,-175
1,251616,-5536,362,-589,-140,-226,-93,179,339,-175
1,251621,-5536,362,-589,-140,-226,-93,179,339,-175
1,251627,-5536,362,-589,-140,-226,-93,179,339,-175
1,251632,-5537,364,-585,-140,-221,-90,177,339,-183
1,251637,-5537,364,-585,-140,-221,-90,177,339,-183
1,251643,-5537,364,-585,-140,-221,-90,177,339,-183
1,251649,-5537,364,-585,-140,-221,-90,177,339,-183
1,251654,-5535,364,-585,-138,-221,-83,177,339,-183
1,251660,-5535,364,-585,-138,-221,-83,177,339,-183
1,251665,-5535,364,-585,-138,-221,-83,177,339,-183
1,251671,-5539,364,-583,-141,-226,-80,177,339,-183
1,251676,-5539,364,-583,-141,-226,-80,177,339,-183
1,251682,-5539,364,-583,-141,-226,-80,177,339,-183
1,251687,-5539,364,-583,-141,-226,-80,177,339,-183
1,251694,-5537,361,-587,-140,-234,-85,177,339,-183
1,251699,-5537,361,-587,-140,-234,-85,177,339,-183
1,251704,-5537,361,-587,-140,-234,-85,177,339,-183
1,251710,-5536,367,-579,-148,-229,-90,177,339,-183
1,251715,-5536,367,-579,-148,-229,-90,177,339,-183
1,251721,-5536,367,-579,-148,-229,-90,177,339,-183
1,251726,-5536,367,-579,-148,-229,-90,177,339,-183
1,251731,-5539,364,-586,-138,-227,-91,177,339,-183
1,251738,-5539,364,-586,-138,-227,-91,177,339,-183
1,251743,-5539,364,-586,-138,-227,-91,177,339,-183
1,251748,-5539,364,-586,-138,-227,-91,177,339,-183
1,251754,-5537,365,-578,-133,-224,-88,177,339,-181
1,251759,-5537,365,-578,-133,-224,-88,177,339,-181
1,251764,-5537,365,-578,-133,-224,-88,177,339,-181
1,251769,-5537,367,-578,-137,-222,-92,177,339,-181
1,251776,-5537,367,-578,-137,-222,-92,177,339,-181
1,251782,-5537,367,-578,-137,-222,-92,177,339,-181
1,251787,-5537,367,-578,-137,-222,-92,177,339,-181
1,251793,-5535,364,-584,-140,-223,-91,177,339,-181
1,251798,-5535,364,-584,-140,-223,-91,177,339,-181
1,251804,-5535,364,-584,-140,-223,-91,177,339,-181
1,251810,-5539,365,-585,-143,-226,-95,177,339,-181
1,251815,-5539,365,-585,-143,-226,-95,177,339,-181
1,251822,-5539,365,-585,-143,-226,-95,177,339,-181
1,251827,-5539,365,-585,-143,-226,-95,177,339,-181
1,251833,-5540,365,-585,-146,-230,-93,177,339,-181
1,251838,-5540,365,-585,-146,-230,-93,177,339,-181
1,251844,-5540,365,-585,-146,-230,-93,177,339,-181
1,251849,-5538,361,-586,-142,-232,-91,177,339,-181
1,251855,-5538,361,-586,-142,-232,-91,177,339,-181
1,251860,-5538,361,-586,-142,-232,-91,177,339,-181
1,251866,-5538,361,-586,-142,-232,-91,177,339,-181
1,251871,-5537,362,-583,-140,-227,-89,167,333,-179
1,251877,-5537,362,-583,-140,-227,-89,167,333,-179
1,251882,-5537,362,-583,-140,-227,-89,167,333,-179
1,251888,-5537,362,-583,-140,-227,-89,167,333,-179
1,251893,-5537,364,-584,-143,-228,-95,167,333,-179
1,251899,-5537,364,-584,-143,-228,-95,167,333,-179
1,251905,-5537,364,-584,-143,-228,-95,167,333,-179
1,251910,-5536,367,-585,-139,-221,-86,167,333,-179
1,251916,-5536,367,-585,-139,-221,-86,167,333,-179
1,251921,-5536,367,-585,-139,-221,-86,167,333,-179
1,251926,-5536,367,-585,-139,-221,-86,167,333,-179
1,251932,-5538,362,-585,-144,-224,-78,167,333,-179
1,251938,-5538,362,-585,-144,-224,-78,167,333,-179
1,251943,-5538,362,-585,-144,-224,-78,167,333,-179
1,251949,-5538,362,-585,-144,-224,-78,167,333,-179
1,251955,-5539,363,-581,-143,-221,-89,167,333,-179
1,251960,-5539,363,-581,-143,-221,-89,167,333,-179
1,251965,-5539,363,-581,-143,-221,-89,167,333,-179
1,251971,-5539,363,-580,-138,-229,-93,167,333,-179
1,251977,-5539,363,-580,-138,-229,-93,167,333,-179
1,251982,-5539,363,-580,-138,-229,-93,167,333,-179
1,251987,-5539,363,-580,-138,-229,-93,167,333,-179
1,251994,-5540,365,-584,-137,-222,-96,172,326,-178
1,251999,-5540,365,-584,-137,-222,-96,172,326,-178
1,252004,-5540,365,-584,-137,-222,-96,172,326,-178
1,252009,-5540,365,-584,-137,-222,-96,172,326,-178
1,252015,-5537,365,-585,-130,-222,-90,172,326,-178
1,252020,-5537,365,-585,-130,-222,-90,172,326,-178
1,252026,-5537,365,-585,-130,-222,-90,172,326,-178
1,252032,-5538,364,-585,-137,-227,-89,172,326,-178
1,252038,-5538,364,-585,-137,-227,-89,172,326,-178
1,252043,-5538,364,-585,-137,-227,-89,172,326,-178
1,252049,-5538,364,-585,-137,-227,-89,172,326,-178
1,252055,-5538,366,-585,-137,-234,-90,172,326,-178
1,252060,-5538,366,-585,-137,-234,-90,172,326,-178
1,252066,-5538,366,-585,-137,-234,-90,172,326,-178
1,252071,-5535,364,-586,-136,-219,-87,172,326,-178
1,252077,-5535,364,-586,-136,-219,-87,172,326,-178
1,252082,-5535,364,-586,-136,-219,-87,172,326,-178
1,252088,-5535,364,-586,-136,-219,-87,172,326,-178
1,252092,-5539,366,-585,-137,-221,-90,172,326,-178
1,252098,-5539,366,-585,-137,-221,-90,172,326,-178
1,252104,-5539,366,-585,-137,-221,-90,172,326,-178
1,252109,-5539,366,-585,-137,-221,-90,172,326,-178
1,252114,-5539,363,-584,-138,-226,-89,172,330,-176
1,252120,-5539,363,-584,-138,-226,-89,172,330,-176
1,252126,-5539,363,-584,-138,-226,-89,172,330,-176
1,252132,-5537,365,-579,-137,-225,-94,172,330,-176
1,252137,-5537,365,-579,-137,-225,-94,172,330,-176
1,252142,-5537,365,-579,-137,-225,-94,172,330,-176
1,252147,-5537,365,-579,-137,-225,-94,172,330,-176
1,252153,-5540,362,-585,-137,-226,-92,172,330,-176
1,252158,-5540,362,-585,-137,-226,-92,172,330,-176
1,252164,-5540,362,-585,-137,-226,-92,172,330,-176
1,252170,-5535,366,-585,-134,-231,-88,172,330,-176
1,252176,-5535,366,-585,-134,-231,-88,172,330,-176
1,252181,-5535,366,-585,-134,-231,-88,172,330,-176
1,252186,-5535,366,-585,-134,-231,-88,172,330,-176
1,252191,-5537,364,-578,-137,-228,-87,172,330,-176
1,252197,-5537,364,-578,-137,-228,-87,172,330,-176
1,252203,-5537,364,-578,-137,-228,-87,172,330,-176
1,252208,-5537,364,-578,-137,-228,-87,172,330,-176
1,252214,-5538,363,-588,-136,-218,-91,172,330,-176
1,252219,-5538,363,-588,-136,-218,-91,172,330,-176
1,252224,-5538,363,-588,-136,-218,-91,172,330,-176
1,252229,-5538,363,-588,-136,-218,-91,172,330,-176
1,252235,-5537,365,-585,-142,-220,-89,170,330,-172
1,252240,-5537,365,-585,-142,-220,-89,170,330,-172
1,252246,-5537,365,-585,-142,-220,-89,170,330,-172
1,252252,-5537,366,-577,-138,-223,-92,170,330,-172
1,252257,-5537,366,-577,-138,-223,-92,170,330,-172
1,252263,-5537,366,-577,-138,-223,-92,170,330,-172
1,252268,-5537,366,-577,-138,-223,-92,170,330,-172
1,252274,-5538,364,-584,-136,-217,-96,170,330,-172
1,252279,-5538,364,-584,-136,-217,-96,170,330,-172
1,252285,-5538,364,-584,-136,-217,-96,170,330,-172
1,252291,-5536,363,-582,-137,-230,-92,170,330,-172
1,252296,-5536,363,-582,-137,-230,-92,170,330,-172
1,252301,-5536,363,-582,-137,-230,-92,170,330,-172
1,252307,-5536,363,-582,-137,-230,-92,170,330,-172
1,252312,-5536,365,-580,-144,-228,-86,170,330,-172
1,252317,-5536,365,-580,-144,-228,-86,170,330,-172
1,252323,-5536,365,-580,-144,-228,-86,170,330,-172
1,252328,-5536,365,-580,-144,-228,-86,170,330,-172
1,252334,-5537,366,-583,-137,-228,-87,170,330,-172
1,252340,-5537,366,-583,-137,-228,-87,170,330,-172
1,252345,-5537,366,-583,-137,-228,-87,170,330,-172
1,252351,-5539,364,-587,-138,-231,-93,170,330,-172
1,252356,-5539,364,-587,-138,-231,-93,170,330,-172
1,252362,-5539,364,-587,-138,-231,-93,170,330,-172
1,252367,-5539,364,-587,-138,-231,-93,170,330,-172
1,252374,-5539,368,-582,-143,-235,-91,180,334,-174
1,252379,-5539,368,-582,-143,-235,-91,180,334,-174
1,252384,-5539,368,-582,-143,-235,-91,180,334,-174
1,252389,-5539,368,-582,-143,-235,-91,180,334,-174
1,252395,-5536,366,-579,-144,-221,-88,180,334,-174
1,252400,-5536,366,-579,-144,-221,-88,180,334,-174
1,252405,-5536,366,-579,-144,-221,-88,180,334,-174
1,252410,-5533,365,-582,-135,-220,-88,180,334,-174
1,252417,-5533,365,-582,-135,-220,-88,180,334,-174
1,252422,-5533,365,-582,-135,-220,-88,180,334,-174
1,252427,-5533,365,-582,-135,-220,-88,180,334,-174
1,252433,-5537,363,-587,-138,-224,-89,180,334,-174
1,252438,-5537,363,-587,-138,-224,-89,180,334,-174
1,252443,-5537,363,-587,-138,-224,-89,180,334,-174
1,252448,-5537,363,-587,-138,-224,-89,180,334,-174
1,252454,-5536,363,-583,-135,-218,-87,180,334,-174
1,252459,-5536,363,-583,-135,-218,-87,180,334,-174
1,252465,-5536,363,-583,-135,-218,-87,180,334,-174
1,252471,-5535,361,-586,-138,-224,-87,180,334,-174
1,252477,-5535,361,-586,-138,-224,-87,180,334,-174
1,252482,-5535,361,-586,-138,-224,-87,180,334,-174
1,252487,-5535,361,-586,-138,-224,-87,180,334,-174
1,252493,-5536,367,-583,-134,-228,-87,183,329,-175
1,252498,-5536,367,-583,-134,-228,-87,183,329,-175
1,252505,-5536,367,-583,-134,-228,-87,183,329,-175
1,252511,-5535,365,-587,-145,-226,-89,183,329,-175
1,252516,-5535,365,-587,-145,-226,-89,183,329,-175
1,252522,-5535,365,-587,-145,-226,-89,183,329,-175
1,252527,-5535,365,-587,-145,-226,-89,183,329,-175
1,252533,-5540,365,-579,-144,-220,-89,183,329,-175
1,252538,-5540,365,-579,-144,-220,-89,183,329,-175
1,252544,-5540,365,-579,-144,-220,-89,183,329,-175
1,252549,-5540,365,-579,-144,-220,-89,183,329,-175
1,252554,-5537,365,-586,-136,-230,-89,183,329,-175
1,252559,-5537,365,-586,-136,-230,-89,183,329,-175
1,252564,-5537,365,-586,-136,-230,-89,183,329,-175
1,252570,-5537,365,-586,-136,-230,-89,183,329,-175
1,252575,-5536,362,-582,-141,-231,-84,183,329,-175
1,252580,-5536,362,-582,-141,-231,-84,183,329,-175
1,252587,-5536,362,-582,-141,-231,-84,183,329,-175
1,252592,-5538,363,-587,-142,-226,-89,183,329,-175
1,252597,-5538,363,-587,-142,-226,-89,183,329,-175
1,252603,-5538,363,-587,-142,-226,-89,183,329,-175
1,252608,-5538,363,-587,-142,-226,-89,183,329,-175
1,252614,-5535,366,-582,-134,-230,-91,177,329,-175
1,252619,-5535,366,-582,-134,-230,-91,177,329,-175
1,252625,-5535,366,-582,-134,-230,-91,177,329,-175
1,252631,-5536,365,-584,-141,-222,-96,177,329,-175
1,252637,-5536,365,-584,-141,-222,-96,177,329,-175
1,252642,-5536,365,-584,-141,-222,-96,177,329,-175
1,252647,-5536,365,-584,-141,-222,-96,177,329,-175
1,252652,-5538,366,-584,-139,-230,-92,177,329,-175
1,252658,-5538,366,-584,-139,-230,-92,177,329,-175
1,252664,-5538,366,-584,-139,-230,-92,177,329,-175
1,252669,-5538,366,-584,-139,-230,-92,177,329,-175
1,252676,-5541,365,-585,-137,-223,-92,177,329,-175
1,252685,-5541,365,-585,-137,-223,-92,177,329,-175
1,252690,-5541,365,-585,-137,-223,-92,177,329,-175
1,252695,-5537,366,-586,-144,-220,-87,177,329,-175
1,252701,-5537,366,-586,-144,-220,-87,177,329,-175
1,252706,-5537,366,-586,-144,-220,-87,177,329,-175
1,252711,-5536,365,-586,-139,-229,-86,177,329,-175
1,252717,-5536,365,-586,-139,-229,-86,177,329,-175
1,252722,-5536,365,-586,-139,-229,-86,177,329,-175
1,252728,-5536,365,-586,-139,-229,-86,177,329,-175
1,252733,-5539,366,-585,-138,-233,-93,171,337,-173
1,252738,-5539,366,-585,-138,-233,-93,171,337,-173
1,252744,-5539,366,-585,-138,-233,-93,171,337,-173
1,252750,-5539,366,-585,-138,-233,-93,171,337,-173
1,252755,-5535,366,-584,-136,-221,-96,171,337,-173
1,252762,-5535,366,-584,-136,-221,-96,171,337,-173
1,252767,-5535,366,-584,-136,-221,-96,171,337,-173
1,252773,-5538,366,-584,-136,-225,-100,171,337,-173
1,252777,-5538,366,-584,-136,-225,-100,171,337,-173
1,252783,-5538,366,-584,-136,-225,-100,171,337,-173
1,252789,-5538,366,-584,-136,-225,-100,171,337,-173
1,252794,-5538,365,-584,-141,-224,-94,171,337,-173
1,252800,-5538,365,-584,-141,-224,-94,171,337,-173
1,252806,-5538,365,-584,-141,-224,-94,171,337,-173
1,252810,-5538,365,-584,-141,-224,-94,171,337,-173
1,252816,-5536,366,-589,-141,-226,-86,171,337,-173
1,252821,-5536,366,-589,-141,-226,-86,171,337,-173
1,252827,-5536,366,-589,-141,-226,-86,171,337,-173
1,252832,-5538,365,-594,-137,-224,-85,171,337,-173
1,252838,-5538,365,-594,-137,-224,-85,171,337,-173
1,252844,-5538,365,-594,-137,-224,-85,171,337,-173
1,252850,-5538,365,-594,-137,-224,-85,171,337,-173
1,252855,-5540,363,-585,-139,-223,-91,179,339,-183
1,252860,-5540,363,-585,-139,-223,-91,179,339,-183
1,252866,-5540,363,-585,-139,-223,-91,179,339,-183
1,252871,-5537,366,-582,-134,-224,-100,179,339,-183
1,252876,-5537,366,-582,-134,-224,-100,179,339,-183
1,252882,-5537,366,-582,-134,-224,-100,179,339,-183
1,252888,-5537,366,-582,-134,-224,-100,179,339,-183
1,252894,-5538,364,-584,-142,-228,-91,179,339,-183
1,252899,-5538,364,-584,-142,-228,-91,179,339,-183
1,252904,-5538,364,-584,-142,-228,-91,179,339,-183
1,252909,-5538,364,-584,-142,-228,-91,179,339,-183
1,252915,-5538,367,-588,-144,-224,-89,179,339,-183
1,252920,-5538,367,-588,-144,-224,-89,179,339,-183
1,252926,-5538,367,-588,-144,-224,-89,179,339,-183
1,252932,-5538,367,-582,-135,-224,-93,179,339,-183
1,252937,-5538,367,-582,-135,-224,-93,179,339,-183
1,252942,-5538,367,-582,-135,-224,-93,179,339,-183
1,252948,-5538,367,-582,-135,-224,-93,179,339,-183
1,252953,-5535,364,-583,-138,-215,-90,179,339,-183
1,252959,-5535,364,-583,-138,-215,-90,179,339,-183
1,252964,-5535,364,-583,-138,-215,-90,179,339,-183
1,252971,-5535,364,-583,-138,-215,-90,179,339,-183
1,252976,-5540,366,-583,-136,-229,-87,176,328,-176
1,252981,-5540,366,-583,-136,-229,-87,176,328,-176
1,252986,-5540,366,-583,-136,-229,-87,176,328,-176
1,252992,-5540,370,-585,-141,-227,-90,176,328,-176
1,252997,-5540,370,-585,-141,-227,-90,176,328,-176
1,253002,-5540,370,-585,-141,-227,-90,176,328,-176
1,253007,-5540,370,-585,-141,-227,-90,176,328,-176
1,253012,-5536,368,-591,-139,-222,-93,176,328,-176
1,253019,-5536,368,-591,-139,-222,-93,176,328,-176
1,253024,-5536,368,-591,-139,-222,-93,176,328,-176
1,253029,-5536,368,-591,-139,-222,-93,176,328,-176
1,253034,-5537,367,-588,-132,-219,-89,176,328,-176
1,253040,-5537,367,-588,-132,-219,-89,176,328,-176
1,253046,-5537,367,-588,-132,-219,-89,176,328,-176
1,253051,-5539,363,-588,-134,-228,-92,176,328,-176
1,253057,-5539,363,-588,-134,-228,-92,176,328,-176
1,253062,-5539,363,-588,-134,-228,-92,176,328,-176
1,253067,-5539,363,-588,-134,-228,-92,176,328,-176
1,253073,-5537,363,-586,-142,-225,-99,176,328,-176
1,253078,-5537,363,-586,-142,-225,-99,176,328,-176
1,253083,-5537,363,-586,-142,-225,-99,176,328,-176
1,253088,-5537,363,-586,-142,-225,-99,176,328,-176
1,253093,-5539,365,-583,-141,-219,-88,176,328,-176
1,253100,-5539,365,-583,-141,-219,-88,176,328,-176
1,253105,-5539,365,-583,-141,-219,-88,176,328,-176
1,253111,-5539,365,-583,-141,-219,-88,176,328,-176
1,253116,-5538,365,-584,-134,-222,-83,172,340,-178
1,253122,-5538,365,-584,-134,-222,-83,172,340,-178
1,253127,-5538,365,-584,-134,-222,-83,172,340,-178
1,253132,-5536,362,-583,-141,-217,-89,172,340,-178
1,253138,-5536,362,-583,-141,-217,-89,172,340,-178
1,253144,-5536,362,-583,-141,-217,-89,172,340,-178
1,253150,-5536,362,-583,-141,-217,-89,172,340,-178
1,253156,-5536,367,-581,-143,-226,-98,172,340,-178
1,253161,-5536,367,-581,-143,-226,-98,172,340,-178
1,253166,-5536,367,-581,-143,-226,-98,172,340,-178
1,253172,-5541,366,-580,-141,-229,-87,172,340,-178
1,253177,-5541,366,-580,-141,-229,-87,172,340,-178
1,253184,-5541,366,-580,-141,-229,-87,172,340,-178
1,253189,-5541,366,-580,-141,-229,-87,172,340,-178
1,253194,-5538,364,-591,-134,-220,-81,172,340,-178
1,253199,-5538,364,-591,-134,-220,-81,172,340,-178
1,253205,-5538,364,-591,-134,-220,-81,172,340,-178
1,253210,-5538,364,-591,-134,-220,-81,172,340,-178
1,253215,-5536,366,-586,-138,-226,-88,172,340,-178
1,253220,-5536,366,-586,-138,-226,-88,172,340,-178
1,253227,-5536,366,-586,-138,-226,-88,172,340,-178
1,253232,-5538,364,-585,-140,-224,-94,177,329,-177
1,253238,-5538,364,-585,-140,-224,-94,177,329,-177
1,253243,-5538,364,-585,-140,-224,-94,177,329,-177
1,253249,-5538,364,-585,-140,-224,-94,177,329,-177
1,253254,-5538,364,-585,-140,-224,-94,177,329,-177
1,253259,-5538,364,-585,-140,-224,-94,177,329,-177
1,253266,-5538,364,-585,-140,-224,-94,177,329,-177
1,253272,-5538,365,-585,-144,-222,-88,177,329,-177
1,253277,-5538,365,-585,-144,-222,-88,177,329,-177
1,253282,-5538,365,-585,-144,-222,-88,177,329,-177
1,253288,-5538,365,-585,-144,-222,-88,177,329,-177
1,253293,-5536,367,-579,-143,-226,-91,177,329,-177
1,253298,-5536,367,-579,-143,-226,-91,177,329,-177
1,253304,-5536,367,-579,-143,-226,-91,177,329,-177
1,253309,-5536,367,-579,-143,-226,-91,177,329,-177
1,253316,-5536,367,-579,-143,-226,-91,177,329,-177
1,253321,-5536,367,-579,-143,-226,-91,177,329,-177
1,253326,-5536,367,-579,-143,-226,-91,177,329,-177
1,253332,-5538,364,-583,-136,-217,-88,177,329,-177
1,253337,-5538,364,-583,-136,-217,-88,177,329,-177
1,253343,-5538,364,-583,-136,-217,-88,177,329,-177
1,253348,-5538,364,-583,-136,-217,-88,177,329,-177
1,253355,-5538,364,-583,-136,-217,-88,178,336,-174
1,253360,-5538,364,-583,-136,-217,-88,178,336,-174
1,253365,-5538,364,-583,-136,-217,-88,178,336,-174
1,253370,-5538,364,-583,-136,-217,-88,178,336,-174
1,253375,-5538,367,-583,-140,-224,-92,178,336,-174
1,253381,-5538,367,-583,-140,-224,-92,178,336,-174
1,253386,-5538,367,-583,-140,-224,-92,178,336,-174
1,253391,-5537,363,-582,-133,-219,-86,178,336,-174
1,253396,-5537,363,-582,-133,-219,-86,178,336,-174
1,253403,-5537,363,-582,-133,-219,-86,178,336,-174
1,253408,-5537,363,-582,-133,-219,-86,178,336,-174
1,253414,-5540,363,-582,-136,-215,-88,178,336,-174
1,253419,-5540,363,-582,-136,-215,-88,178,336,-174
1,253424,-5540,363,-582,-136,-215,-88,178,336,-174
1,253429,-5540,363,-582,-136,-215,-88,178,336,-174
1,253435,-5537,366,-582,-141,-219,-89,178,336,-174
1,253441,-5537,366,-582,-141,-219,-89,178,336,-174
1,253447,-5537,366,-582,-141,-219,-89,178,336,-174
1,253452,-5536,364,-585,-142,-220,-98,178,336,-174
1,253458,-5536,364,-585,-142,-220,-98,178,336,-174
1,253463,-5536,364,-585,-142,-220,-98,178,336,-174
1,253469,-5536,364,-585,-142,-220,-98,178,336,-174
1,253474,-5537,365,-580,-144,-220,-86,180,338,-172
1,253479,-5537,365,-580,-144,-220,-86,180,338,-172
1,253485,-5537,365,-580,-144,-220,-86,180,338,-172
1,253490,-5537,365,-580,-144,-220,-86,180,338,-172
1,253495,-5533,365,-583,-144,-221,-94,180,338,-172
1,253500,-5533,365,-583,-144,-221,-94,180,338,-172
1,253506,-5533,365,-583,-144,-221,-94,180,338,-172
1,253511,-5536,364,-585,-138,-216,-90,180,338,-172
1,253516,-5536,364,-585,-138,-216,-90,180,338,-172
1,253522,-5536,364,-585,-138,-216,-90,180,338,-172
1,253528,-5536,364,-585,-138,-216,-90,180,338,-172
1,253533,-5535,365,-586,-141,-214,-87,180,338,-172
1,253539,-5535,365,-586,-141,-214,-87,180,338,-172
1,253544,-5535,365,-586,-141,-214,-87,180,338,-172
1,253549,-5535,365,-586,-141,-214,-87,180,338,-172
1,253554,-5537,364,-588,-138,-222,-91,180,338,-172
1,253559,-5537,364,-588,-138,-222,-91,180,338,-172
1,253565,-5537,364,-588,-138,-222,-91,180,338,-172
1,253571,-5537,364,-588,-138,-222,-91,180,338,-172
1,253577,-5536,365,-587,-141,-220,-92,180,338,-172
1,253582,-5536,365,-587,-141,-220,-92,180,338,-172
1,253588,-5536,365,-587,-141,-220,-92,180,338,-172
1,253593,-5539,368,-578,-134,-221,-94,177,339,-169
1,253598,-5539,368,-578,-134,-221,-94,177,339,-169
1,253604,-5539,368,-578,-134,-221,-94,177,339,-169
1,253609,-5539,368,-578,-134,-221,-94,177,339,-169
1,253615,-5539,365,-585,-138,-219,-90,177,339,-169
1,253620,-5539,365,-585,-138,-219,-90,177,339,-169
1,253626,-5539,365,-585,-138,-219,-90,177,339,-169
1,253631,-5539,365,-585,-138,-219,-90,177,339,-169
1,253637,-5539,365,-583,-144,-217,-95,177,339,-169
1,253642,-5539,365,-583,-144,-217,-95,177,339,-169
1,253648,-5539,365,-583,-144,-217,-95,177,339,-169
1,253655,-5538,366,-580,-142,-225,-95,177,339,-169
1,253660,-5538,366,-580,-142,-225,-95,177,339,-169
1,253666,-5538,366,-580,-142,-225,-95,177,339,-169
1,253671,-5538,366,-580,-142,-225,-95,177,339,-169
1,253677,-5536,367,-585,-138,-224,-94,177,339,-169
1,253682,-5536,367,-585,-138,-224,-94,177,339,-169
1,253687,-5536,367,-585,-138,-224,-94,177,339,-169
1,253692,-5538,365,-582,-138,-227,-85,177,339,-169
1,253699,-5538,365,-582,-138,-227,-85,177,339,-169
1,253704,-5538,365,-582,-138,-227,-85,177,339,-169
1,253710,-5538,365,-582,-138,-227,-85,177,339,-169
1,253715,-5537,367,-585,-135,-226,-84,177,339,-169
1,253721,-5537,367,-585,-135,-226,-84,177,339,-169
1,253726,-5537,367,-585,-135,-226,-84,177,339,-169
1,253732,-5540,366,-579,-139,-217,-93,165,337,-179
1,253737,-5540,366,-579,-139,-217,-93,165,337,-179
1,253743,-5540,366,-579,-139,-217,-93,165,337,-179
1,253749,-5540,366,-579,-139,-217,-93,165,337,-179
1,253754,-5538,367,-584,-134,-219,-96,165,337,-179
1,253760,-5538,367,-584,-134,-219,-96,165,337,-179
1,253765,-5538,367,-584,-134,-219,-96,165,337,-179
1,253770,-5538,367,-584,-134,-219,-96,165,337,-179
1,253775,-5539,366,-579,-134,-223,-92,165,337,-179
1,253780,-5539,366,-579,-134,-223,-92,165,337,-179
1,253787,-5539,366,-579,-134,-223,-92,165,337,-179
1,253792,-5539,366,-579,-134,-223,-92,165,337,-179
1,253798,-5539,366,-579,-134,-223,-92,165,337,-179
1,253803,-5539,366,-579,-134,-223,-92,165,337,-179
1,253809,-5539,366,-579,-134,-223,-92,165,337,-179
1,253814,-5536,363,-584,-133,-214,-96,165,337,-179
1,253819,-5536,363,-584,-133,-214,-96,165,337,-179
1,253826,-5536,363,-584,-133,-214,-96,165,337,-179
1,253831,-5536,363,-584,-133,-214,-96,165,337,-179
1,253837,-5538,366,-584,-139,-221,-93,165,337,-179
1,253842,-5538,366,-584,-139,-221,-93,165,337,-179
1,253848,-5538,366,-584,-139,-221,-93,165,337,-179
1,253853,-5537,365,-582,-138,-223,-89,176,334,-180
1,253858,-5537,365,-582,-138,-223,-89,176,334,-180
1,253863,-5537,365,-582,-138,-223,-89,176,334,-180
1,253870,-5537,365,-582,-138,-223,-89,176,334,-180
1,253875,-5537,363,-580,-142,-219,-78,176,334,-180
1,253881,-5537,363,-580,-142,-219,-78,176,334,-180
1,253886,-5537,363,-580,-142,-219,-78,176,334,-180
1,253892,-5539,367,-584,-147,-225,-81,176,334,-180
1,253897,-5539,367,-584,-147,-225,-81,176,334,-180
1,253903,-5539,367,-584,-147,-225,-81,176,334,-180
1,253908,-5539,367,-584,-147,-225,-81,176,334,-180
1,253914,-5536,365,-583,-143,-223,-86,176,334,-180
1,253920,-5536,365,-583,-143,-223,-86,176,334,-180
1,253925,-5536,365,-583,-143,-223,-86,176,334,-180
1,253930,-5536,365,-583,-143,-223,-86,176,334,-180
1,253936,-5538,365,-583,-141,-222,-90,176,334,-180
1,253941,-5538,365,-583,-141,-222,-90,176,334,-180
1,253946,-5538,365,-583,-141,-222,-90,176,334,-180
1,253952,-5536,364,-579,-141,-222,-93,176,334,-180
1,253957,-5536,364,-579,-141,-222,-93,176,334,-180
1,253963,-5536,364,-579,-141,-222,-93,176,334,-180
1,253968,-5536,364,-579,-141,-222,-93,176,334,-180
1,253973,-5537,367,-577,-131,-228,-101,178,338,-180
1,253978,-5537,367,-577,-131,-228,-101,178,338,-180
1,253984,-5537,367,-577,-131,-228,-101,178,338,-180
1,253989,-5537,367,-577,-131,-228,-101,178,338,-180
1,253996,-5539,366,-583,-139,-224,-88,178,338,-180
1,254001,-5539,366,-583,-139,-224,-88,178,338,-180
1,254006,-5539,366,-583,-139,-224,-88,178,338,-180
1,254012,-5539,366,-583,-139,-224,-88,178,338,-180
1,254017,-5535,365,-584,-139,-232,-85,178,338,-180
1,254022,-5535,365,-584,-139,-232,-85,178,338,-180
1,254028,-5535,365,-584,-139,-232,-85,178,338,-180
1,254033,-5537,363,-584,-145,-227,-79,178,338,-180
1,254040,-5537,363,-584,-145,-227,-79,178,338,-180
1,254045,-5537,363,-584,-145,-227,-79,178,338,-180
1,254050,-5537,363,-584,-145,-227,-79,178,338,-180
1,254056,-5536,364,-586,-129,-226,-82,178,338,-180
1,254062,-5536,364,-586,-129,-226,-82,178,338,-180
1,254070,-5536,364,-586,-129,-226,-82,178,338,-180
1,254075,-5536,367,-587,-137,-227,-87,178,338,-180
1,254082,-5536,367,-587,-137,-227,-87,178,338,-180
1,254089,-5536,367,-587,-137,-227,-87,178,338,-180
1,254094,-5535,364,-584,-138,-221,-91,185,339,-173
1,254099,-5535,364,-584,-138,-221,-91,185,339,-173
1,254104,-5535,364,-584,-138,-221,-91,185,339,-173
1,254109,-5535,364,-584,-138,-221,-91,185,339,-173
1,254114,-5538,366,-582,-131,-211,-93,185,339,-173
1,254119,-5538,366,-582,-131,-211,-93,185,339,-173
1,254125,-5538,366,-582,-131,-211,-93,185,339,-173
1,254130,-5538,366,-582,-131,-211,-93,185,339,-173
1,254134,-5538,362,-584,-133,-217,-94,185,339,-173
1,254138,-5538,362,-584,-133,-217,-94,185,339,-173
1,254143,-5538,362,-584,-133,-217,-94,185,339,-173
1,254148,-5538,362,-584,-133,-217,-94,185,339,-173
1,254153,-5538,362,-584,-137,-225,-93,185,339,-173
1,254158,-5538,362,-584,-137,-225,-93,185,339,-173
1,254163,-5538,362,-584,-137,-225,-93,185,339,-173
1,254169,-5538,362,-584,-137,-225,-93,185,339,-173
1,254174,-5538,363,-587,-143,-221,-88,185,339,-173
1,254180,-5538,363,-587,-143,-221,-88,185,339,-173
1,254185,-5538,363,-587,-143,-221,-88,185,339,-173
1,254190,-5538,363,-587,-143,-221,-88,185,339,-173
1,254195,-5539,366,-587,-139,-230,-90,185,339,-173
1,254201,-5539,366,-587,-139,-230,-90,185,339,-173
1,254206,-5539,366,-587,-139,-230,-90,185,339,-173
1,254213,-5536,365,-585,-138,-223,-91,173,333,-175
1,254218,-5536,365,-585,-138,-223,-91,173,333,-175
1,254223,-5536,365,-585,-138,-223,-91,173,333,-175
1,254228,-5536,365,-585,-138,-223,-91,173,333,-175
1,254233,-5539,364,-584,-141,-217,-84,173,333,-175
1,254239,-5539,364,-584,-141,-217,-84,173,333,-175
1,254244,-5539,364,-584,-141,-217,-84,173,333,-175
1,254249,-5539,364,-584,-141,-217,-84,173,333,-175
1,254256,-5539,364,-586,-144,-227,-100,173,333,-175
1,254261,-5539,364,-586,-144,-227,-100,173,333,-175
1,254267,-5539,364,-586,-144,-227,-100,173,333,-175
1,254272,-5539,364,-586,-144,-227,-100,173,333,-175
1,254277,-5537,364,-586,-136,-224,-100,173,333,-175
1,254282,-5537,364,-586,-136,-224,-100,173,333,-175
1,254288,-5537,364,-586,-136,-224,-100,173,333,-175
1,254294,-5537,364,-583,-132,-221,-97,173,333,-175
1,254300,-5537,364,-583,-132,-221,-97,173,333,-175
1,254305,-5537,364,-583,-132,-221,-97,173,333,-175
1,254310,-5537,364,-583,-132,-221,-97,173,333,-175
1,254316,-5539,366,-588,-134,-225,-92,173,333,-175
1,254321,-5539,366,-588,-134,-225,-92,173,333,-175
1,254326,-5539,366,-588,-134,-225,-92,173,333,-175
1,254332,-5544,367,-584,-138,-225,-89,173,333,-175
1,254340,-5544,367,-584,-138,-225,-89,174,334,-180
1,254346,-5544,367,-584,-138,-225,-89,174,334,-180
1,254351,-5544,367,-584,-138,-225,-89,174,334,-180
1,254356,-5538,362,-585,-139,-225,-96,174,334,-180
1,254362,-5538,362,-585,-139,-225,-96,174,334,-180
1,254367,-5538,362,-585,-139,-225,-96,174,334,-180
1,254373,-5539,366,-585,-140,-227,-90,174,334,-180
1,254380,-5539,366,-585,-140,-227,-90,174,334,-180
1,254387,-5539,366,-585,-140,-227,-90,174,334,-180
1,254392,-5541,362,-580,-135,-222,-81,174,334,-180
1,254397,-5541,362,-580,-135,-222,-81,174,334,-180
1,254403,-5541,362,-580,-135,-222,-81,174,334,-180
1,254408,-5541,362,-580,-135,-222,-81,174,334,-180
1,254413,-5537,363,-579,-131,-231,-87,174,334,-180
1,254418,-5537,363,-579,-131,-231,-87,174,334,-180
1,254425,-5537,363,-579,-131,-231,-87,174,334,-180
1,254430,-5537,363,-579,-131,-231,-87,174,334,-180
1,254436,-5538,364,-581,-130,-236,-87,174,334,-180
1,254441,-5538,364,-581,-130,-236,-87,174,334,-180
1,254446,-5538,364,-581,-130,-236,-87,174,334,-180
1,254452,-5538,364,-581,-130,-236,-87,174,334,-180
1,254457,-5539,362,-583,-142,-229,-90,174,334,-180
1,254462,-5539,362,-583,-142,-229,-90,174,334,-180
1,254468,-5539,362,-583,-142,-229,-90,174,334,-180
1,254474,-5540,364,-581,-141,-223,-86,172,336,-180
1,254479,-5540,364,-581,-141,-223,-86,172,336,-180
1,254484,-5540,364,-581,-141,-223,-86,172,336,-180
1,254489,-5540,364,-581,-141,-223,-86,172,336,-180
1,254495,-5540,367,-585,-137,-231,-84,172,336,-180
1,254500,-5540,367,-585,-137,-231,-84,172,336,-180
1,254507,-5540,367,-585,-137,-231,-84,172,336,-180
1,254512,-5540,367,-585,-137,-231,-84,172,336,-180
1,254517,-5537,366,-588,-142,-225,-90,172,336,-180
1,254522,-5537,366,-588,-142,-225,-90,172,336,-180
1,254528,-5537,366,-588,-142,-225,-90,172,336,-180
1,254533,-5539,365,-584,-133,-223,-97,172,336,-180
1,254538,-5539,365,-584,-133,-223,-97,172,336,-180
1,254544,-5539,365,-584,-133,-223,-97,172,336,-180
1,254548,-5539,365,-584,-133,-223,-97,172,336,-180
1,254555,-5538,366,-583,-139,-223,-87,172,336,-180
1,254560,-5538,366,-583,-139,-223,-87,172,336,-180
1,254566,-5538,366,-583,-139,-223,-87,172,336,-180
1,254572,-5538,366,-583,-139,-223,-87,172,336,-180
1,254577,-5537,368,-582,-139,-225,-93,172,336,-180
1,254582,-5537,368,-582,-139,-225,-93,172,336,-180
1,254588,-5537,368,-582,-139,-225,-93,172,336,-180
1,254594,-5537,363,-576,-131,-224,-89,171,335,-165
1,254599,-5537,363,-576,-131,-224,-89,171,335,-165
1,254605,-5537,363,-576,-131,-224,-89,171,335,-165
1,254610,-5537,363,-576,-131,-224,-89,171,335,-165
1,254615,-5536,364,-581,-127,-222,-87,171,335,-165
1,254621,-5536,364,-581,-127,-222,-87,171,335,-165
1,254627,-5536,364,-581,-127,-222,-87,171,335,-165
1,254632,-5539,364,-587,-131,-229,-88,171,335,-165
1,254639,-5539,364,-587,-131,-229,-88,171,335,-165
1,254645,-5539,364,-587,-131,-229,-88,171,335,-165
1,254650,-5539,364,-587,-131,-229,-88,171,335,-165
1,254656,-5535,365,-588,-133,-227,-93,171,335,-165
1,254661,-5535,365,-588,-133,-227,-93,171,335,-165
1,254666,-5535,365,-588,-133,-227,-93,171,335,-165
1,254672,-5535,365,-588,-133,-227,-93,171,335,-165
1,254678,-5536,368,-582,-137,-232,-90,171,335,-165
1,254684,-5536,368,-582,-137,-232,-90,171,335,-165
1,254690,-5536,368,-582,-137,-232,-90,171,335,-165
1,254695,-5539,364,-581,-138,-221,-87,171,335,-165
1,254701,-5539,364,-581,-138,-221,-87,171,335,-165
1,254707,-5539,364,-581,-138,-221,-87,171,335,-165
1,254712,-5539,365,-575,-139,-222,-93,176,332,-172
1,254718,-5539,365,-575,-139,-222,-93,176,332,-172
1,254724,-5539,365,-575,-139,-222,-93,176,332,-172
1,254729,-5539,365,-575,-139,-222,-93,176,332,-172
1,254735,-5540,365,-585,-137,-220,-97,176,332,-172
1,254742,-5540,365,-585,-137,-220,-97,176,332,-172
1,254747,-5540,365,-585,-137,-220,-97,176,332,-172
1,254753,-5537,365,-586,-138,-227,-92,176,332,-172
1,254758,-5537,365,-586,-138,-227,-92,176,332,-172
1,254764,-5537,365,-586,-138,-227,-92,176,332,-172
1,254769,-5537,365,-586,-138,-227,-92,176,332,-172
1,254775,-5539,365,-584,-141,-223,-94,176,332,-172
1,254780,-5539,365,-584,-141,-223,-94,176,332,-172
1,254785,-5539,365,-584,-141,-223,-94,176,332,-172
1,254790,-5539,365,-584,-141,-223,-94,176,332,-172
1,254796,-5535,364,-581,-133,-230,-96,176,332,-172
1,254801,-5535,364,-581,-133,-230,-96,176,332,-172
1,254808,-5535,364,-581,-133,-230,-96,176,332,-172
1,254813,-5538,364,-579,-130,-220,-97,176,332,-172
1,254818,-5538,364,-579,-130,-220,-97,176,332,-172
1,254823,-5538,364,-579,-130,-220,-97,176,332,-172
1,254829,-5538,364,-579,-130,-220,-97,176,332,-172
1,254834,-5538,363,-582,-130,-218,-94,170,338,-178
1,254840,-5538,363,-582,-130,-218,-94,170,338,-178
1,254846,-5538,363,-582,-130,-218,-94,170,338,-178
1,254852,-5538,363,-582,-130,-218,-94,170,338,-178
1,254857,-5536,364,-586,-139,-219,-96,170,338,-178
1,254863,-5536,364,-586,-139,-219,-96,170,338,-178
1,254868,-5536,364,-586,-139,-219,-96,170,338,-178
1,254873,-5538,365,-583,-140,-222,-92,170,338,-178
1,254878,-5538,365,-583,-140,-222,-92,170,338,-178
1,254884,-5538,365,-583,-140,-222,-92,170,338,-178
1,254889,-5538,365,-583,-140,-222,-92,170,338,-178
1,254896,-5537,365,-582,-141,-220,-93,170,338,-178
1,254901,-5537,365,-582,-141,-220,-93,170,338,-178
1,254906,-5537,365,-582,-141,-220,-93,170,338,-178
1,254911,-5537,365,-582,-141,-220,-93,170,338,-178
1,254917,-5539,362,-585,-137,-219,-89,170,338,-178
1,254922,-5539,362,-585,-137,-219,-89,170,338,-178
1,254927,-5539,362,-585,-137,-219,-89,170,338,-178
1,254932,-5539,362,-585,-137,-219,-89,170,338,-178
1,254938,-5540,363,-584,-132,-221,-92,170,338,-178
1,254943,-5540,363,-584,-132,-221,-92,170,338,-178
1,254948,-5540,363,-584,-132,-221,-92,170,338,-178
1,254953,-5535,364,-583,-140,-226,-89,177,335,-173
1,254958,-5535,364,-583,-140,-226,-89,177,335,-173
1,254963,-5535,364,-583,-140,-226,-89,177,335,-173
1,254969,-5535,364,-583,-140,-226,-89,177,335,-173
1,254974,-5536,364,-583,-143,-224,-80,177,335,-173
1,254981,-5536,364,-583,-143,-224,-80,177,335,-173
1,254986,-5536,364,-583,-143,-224,-80,177,335,-173
1,254992,-5536,364,-583,-143,-224,-80,177,335,-173
1,254997,-5537,367,-580,-139,-230,-89,177,335,-173
1,255002,-5537,367,-580,-139,-230,-89,177,335,-173
1,255007,-5537,367,-580,-139,-230,-89,177,335,-173
1,255013,-5536,363,-579,-140,-230,-96,177,335,-173
1,255019,-5536,363,-579,-140,-230,-96,177,335,-173
1,255024,-5536,363,-579,-140,-230,-96,177,335,-173
1,255029,-5536,363,-579,-140,-230,-96,177,335,-173
1,255035,-5540,363,-583,-137,-224,-88,177,335,-173
1,255040,-5540,363,-583,-137,-224,-88,177,335,-173
1,255045,-5540,363,-583,-137,-224,-88,177,335,-173
1,255051,-5540,363,-583,-137,-224,-88,177,335,-173
1,255057,-5537,364,-587,-140,-225,-92,177,335,-173
1,255063,-5537,364,-587,-140,-225,-92,177,335,-173
1,255069,-5537,364,-587,-140,-225,-92,177,335,-173
1,255074,-5535,364,-579,-138,-231,-94,168,330,-184
1,255080,-5535,364,-579,-138,-231,-94,168,330,-184
1,255085,-5535,364,-579,-138,-231,-94,168,330,-184
1,255090,-5535,364,-579,-138,-231,-94,168,330,-184
1,255095,-5537,367,-580,-135,-223,-95,168,330,-184
1,255101,-5537,367,-580,-135,-223,-95,168,330,-184
1,255107,-5537,367,-580,-135,-223,-95,168,330,-184
1,255112,-5537,367,-580,-135,-223,-95,168,330,-184
1,255117,-5538,365,-581,-136,-219,-86,168,330,-184
1,255122,-5538,365,-581,-136,-219,-86,168,330,-184
1,255127,-5538,365,-581,-136,-219,-86,168,330,-184
1,255133,-5538,364,-586,-139,-219,-93,168,330,-184
1,255138,-5538,364,-586,-139,-219,-93,168,330,-184
1,255143,-5538,364,-586,-139,-219,-93,168,330,-184
1,255150,-5538,364,-586,-139,-219,-93,168,330,-184
1,255155,-5539,365,-588,-140,-220,-92,168,330,-184
1,255161,-5539,365,-588,-140,-220,-92,168,330,-184
1,255166,-5539,365,-588,-140,-220,-92,168,330,-184
1,255171,-5539,365,-588,-140,-220,-92,168,330,-184
1,255176,-5537,367,-584,-136,-220,-100,168,330,-184
1,255182,-5537,367,-584,-136,-220,-100,168,330,-184
1,255188,-5537,367,-584,-136,-220,-100,168,330,-184
1,255195,-5539,367,-583,-137,-229,-85,168,330,-184
1,255200,-5539,367,-583,-137,-229,-85,168,330,-184
1,255205,-5539,367,-583,-137,-229,-85,168,330,-184
1,255210,-5539,367,-583,-137,-229,-85,168,330,-184
1,255215,-5538,368,-585,-134,-228,-93,181,329,-173
1,255220,-5538,368,-585,-134,-228,-93,181,329,-173
1,255226,-5538,368,-585,-134,-228,-93,181,329,-173
1,255232,-5538,368,-585,-134,-228,-93,181,329,-173
1,255238,-5538,367,-578,-141,-225,-97,181,329,-173
1,255243,-5538,367,-578,-141,-225,-97,181,329,-173
1,255248,-5538,367,-578,-141,-225,-97,181,329,-173
1,255253,-5536,364,-584,-133,-230,-90,181,329,-173
1,255259,-5536,364,-584,-133,-230,-90,181,329,-173
1,255264,-5536,364,-584,-133,-230,-90,181,329,-173
1,255270,-5536,364,-584,-133,-230,-90,181,329,-173
1,255276,-5538,364,-588,-130,-222,-85,181,329,-173
1,255281,-5538,364,-588,-130,-222,-85,181,329,-173
1,255286,-5538,364,-588,-130,-222,-85,181,329,-173
1,255292,-5538,364,-588,-130,-222,-85,181,329,-173
1,255297,-5538,366,-581,-133,-220,-81,181,329,-173
1,255303,-5538,366,-581,-133,-220,-81,181,329,-173
1,255308,-5538,366,-581,-133,-220,-81,181,329,-173
1,255313,-5538,364,-583,-136,-220,-87,181,329,-173
1,255320,-5538,364,-583,-136,-220,-87,181,329,-173
1,255325,-5538,364,-583,-136,-220,-87,181,329,-173
1,255330,-5538,364,-583,-136,-220,-87,181,329,-173
1,255335,-5537,365,-579,-143,-225,-84,177,335,-175
1,255341,-5537,365,-579,-143,-225,-84,177,335,-175
1,255346,-5537,365,-579,-143,-225,-84,177,335,-175
1,255352,-5537,365,-579,-143,-225,-84,177,335,-175
1,255357,-5540,365,-584,-132,-230,-88,177,335,-175
1,255364,-5540,365,-584,-132,-230,-88,177,335,-175
1,255369,-5540,365,-584,-132,-230,-88,177,335,-175
1,255374,-5534,363,-582,-136,-232,-95,177,335,-175
1,255380,-5534,363,-582,-136,-232,-95,177,335,-175
1,255385,-5534,363,-582,-136,-232,-95,177,335,-175
1,255391,-5534,363,-582,-136,-232,-95,177,335,-175
1,255396,-5539,365,-579,-141,-228,-89,177,335,-175
1,255401,-5539,365,-579,-141,-228,-89,177,335,-175
1,255408,-5539,365,-579,-141,-228,-89,177,335,-175
1,255413,-5539,365,-579,-141,-228,-89,177,335,-175
1,255419,-5536,365,-587,-135,-225,-89,177,335,-175
1,255424,-5536,365,-587,-135,-225,-89,177,335,-175
1,255430,-5536,365,-587,-135,-225,-89,177,335,-175
1,255435,-5538,368,-584,-141,-224,-90,177,335,-175
1,255440,-5538,368,-584,-141,-224,-90,177,335,-175
1,255447,-5538,368,-584,-141,-224,-90,177,335,-175
1,255452,-5538,368,-584,-141,-224,-90,177,335,-175
1,255458,-5539,363,-578,-134,-226,-89,171,333,-173
1,255463,-5539,363,-578,-134,-226,-89,171,333,-173
1,255468,-5539,363,-578,-134,-226,-89,171,333,-173
1,255474,-5535,366,-581,-140,-222,-83,171,333,-173
1,255479,-5535,366,-581,-140,-222,-83,171,333,-173
1,255485,-5535,366,-581,-140,-222,-83,171,333,-173
1,255491,-5535,366,-581,-140,-222,-83,171,333,-173
1,255496,-5539,365,-586,-136,-216,-88,171,333,-173
1,255502,-5539,365,-586,-136,-216,-88,171,333,-173
1,255507,-5539,365,-586,-136,-216,-88,171,333,-173
1,255512,-5539,365,-586,-136,-216,-88,171,333,-173
1,255518,-5541,365,-584,-137,-224,-91,171,333,-173
1,255523,-5541,365,-584,-137,-224,-91,171,333,-173
1,255528,-5541,365,-584,-137,-224,-91,171,333,-173
1,255535,-5538,367,-584,-142,-225,-93,171,333,-173
1,255540,-5538,367,-584,-142,-225,-93,171,333,-173
1,255545,-5538,367,-584,-142,-225,-93,171,333,-173
1,255551,-5538,367,-584,-142,-225,-93,171,333,-173
1,255556,-5540,366,-586,-135,-224,-89,171,333,-173
1,255561,-5540,366,-586,-135,-224,-89,171,333,-173
1,255566,-5540,366,-586,-135,-224,-89,171,333,-173
1,255571,-5540,366,-586,-135,-224,-89,171,333,-173
1,255578,-5539,365,-578,-137,-226,-93,176,336,-182
1,255583,-5539,365,-578,-137,-226,-93,176,336,-182
1,255589,-5539,365,-578,-137,-226,-93,176,336,-182
1,255594,-5539,364,-586,-135,-219,-94,176,336,-182
1,255599,-5539,364,-586,-135,-219,-94,176,336,-182
1,255604,-5539,364,-586,-135,-219,-94,176,336,-182
1,255610,-5539,364,-586,-135,-219,-94,176,336,-182
1,255616,-5534,366,-588,-133,-224,-91,176,336,-182
1,255621,-5534,366,-588,-133,-224,-91,176,336,-182
1,255626,-5534,366,-588,-133,-224,-91,176,336,-182
1,255631,-5534,366,-588,-133,-224,-91,176,336,-182
1,255636,-5537,366,-581,-137,-219,-92,176,336,-182
1,255642,-5537,366,-581,-137,-219,-92,176,336,-182
1,255647,-5537,366,-581,-137,-219,-92,176,336,-182
1,255653,-5537,366,-581,-137,-219,-92,176,336,-182
1,255659,-5537,363,-585,-134,-218,-86,176,336,-182
1,255664,-5537,363,-585,-134,-218,-86,176,336,-182
1,255670,-5537,363,-585,-134,-218,-86,176,336,-182
1,255675,-5536,365,-588,-132,-219,-88,176,336,-182
1,255680,-5536,365,-588,-132,-219,-88,176,336,-182
1,255686,-5536,365,-588,-132,-219,-88,176,336,-182
1,255691,-5536,365,-588,-132,-219,-88,176,336,-182
1,255697,-5534,364,-583,-135,-225,-87,180,330,-164
1,255703,-5534,364,-583,-135,-225,-87,180,330,-164
1,255708,-5534,364,-583,-135,-225,-87,180,330,-164
1,255714,-5538,366,-582,-134,-219,-87,180,330,-164
1,255719,-5538,366,-582,-134,-219,-87,180,330,-164
1,255725,-5538,366,-582,-134,-219,-87,180,330,-164
1,255729,-5538,366,-582,-134,-219,-87,180,330,-164
1,255735,-5536,364,-585,-135,-220,-95,180,330,-164
1,255741,-5536,364,-585,-135,-220,-95,180,330,-164
1,255747,-5536,364,-585,-135,-220,-95,180,330,-164
1,255752,-5536,364,-585,-135,-220,-95,180,330,-164
1,255758,-5536,367,-586,-140,-222,-90,180,330,-164
1,255763,-5536,367,-586,-140,-222,-90,180,330,-164
1,255769,-5536,367,-586,-140,-222,-90,180,330,-164
1,255774,-5538,367,-585,-131,-223,-85,180,330,-164
1,255779,-5538,367,-585,-131,-223,-85,180,330,-164
1,255785,-5538,367,-585,-131,-223,-85,180,330,-164
1,255793,-5538,367,-585,-131,-223,-85,180,330,-164
1,255798,-5534,365,-584,-135,-228,-92,180,330,-164
1,255803,-5534,365,-584,-135,-228,-92,180,330,-164
1,255809,-5534,365,-584,-135,-228,-92,180,330,-164
1,255814,-5537,365,-585,-137,-222,-93,168,340,-176
1,255820,-5537,365,-585,-137,-222,-93,168,340,-176
1,255825,-5537,365,-585,-137,-222,-93,168,340,-176
1,255832,-5537,365,-585,-137,-222,-93,168,340,-176
1,255838,-5536,366,-579,-137,-219,-89,168,340,-176
1,255843,-5536,366,-579,-137,-219,-89,168,340,-176
1,255848,-5536,366,-579,-137,-219,-89,168,340,-176
1,255854,-5538,365,-577,-139,-219,-87,168,340,-176
1,255859,-5538,365,-577,-139,-219,-87,168,340,-176
1,255864,-5538,365,-577,-139,-219,-87,168,340,-176
1,255870,-5538,365,-577,-139,-219,-87,168,340,-176
1,255877,-5536,364,-583,-146,-224,-94,168,340,-176
1,255882,-5536,364,-583,-146,-224,-94,168,340,-176
1,255887,-5536,364,-583,-146,-224,-94,168,340,-176
1,255892,-5536,364,-583,-146,-224,-94,168,340,-176
1,255898,-5538,365,-584,-140,-225,-87,168,340,-176
1,255903,-5538,365,-584,-140,-225,-87,168,340,-176
1,255908,-5538,365,-584,-140,-225,-87,168,340,-176
1,255915,-5541,366,-586,-133,-224,-88,168,340,-176
1,255921,-5541,366,-586,-133,-224,-88,168,340,-176
1,255926,-5541,366,-586,-133,-224,-88,168,340,-176
1,255931,-5541,366,-586,-133,-224,-88,168,340,-176
1,255936,-5538,362,-585,-135,-226,-90,168,340,-176
1,255942,-5538,362,-585,-135,-226,-90,168,340,-176
1,255947,-5538,362,-585,-135,-226,-90,168,340,-176
1,255953,-5538,362,-585,-135,-226,-90,168,340,-176
1,255959,-5537,363,-583,-139,-221,-92,176,340,-180
1,255965,-5537,363,-583,-139,-221,-92,176,340,-180
1,255970,-5537,363,-583,-139,-221,-92,176,340,-180
1,255976,-5537,363,-583,-139,-221,-92,176,340,-180
1,255981,-5537,363,-583,-139,-221,-92,176,340,-180
1,255986,-5537,363,-583,-139,-221,-92,176,340,-180
1,255991,-5537,363,-583,-139,-221,-92,176,340,-180
1,255996,-5539,367,-581,-135,-215,-91,176,340,-180
1,256003,-5539,367,-581,-135,-215,-91,176,340,-180
1,256009,-5539,367,-581,-135,-215,-91,176,340,-180
1,256014,-5539,363,-584,-130,-208,-95,176,340,-180
1,256020,-5539,363,-584,-130,-208,-95,176,340,-180
1,256026,-5539,363,-584,-130,-208,-95,176,340,-180
1,256031,-5539,363,-584,-130,-208,-95,176,340,-180
1,256036,-5538,367,-582,-141,-217,-96,176,340,-180
1,256043,-5538,367,-582,-141,-217,-96,176,340,-180
1,256048,-5538,367,-582,-141,-217,-96,176,340,-180
1,256053,-5538,367,-582,-141,-217,-96,176,340,-180
1,256059,-5538,364,-587,-145,-209,-86,176,340,-180
1,256064,-5538,364,-587,-145,-209,-86,176,340,-180
1,256070,-5538,364,-587,-145,-209,-86,176,340,-180
1,256075,-5538,368,-580,-134,-224,-90,172,332,-178
1,256081,-5538,368,-580,-134,-224,-90,172,332,-178
1,256088,-5538,368,-580,-134,-224,-90,172,332,-178
1,256094,-5538,368,-580,-134,-224,-90,172,332,-178
1,256099,-5538,367,-581,-138,-229,-98,172,332,-178
1,256105,-5538,367,-581,-138,-229,-98,172,332,-178
1,256110,-5538,367,-581,-138,-229,-98,172,332,-178
1,256115,-5536,365,-584,-136,-223,-94,172,332,-178
1,256121,-5536,365,-584,-136,-223,-94,172,332,-178
1,256126,-5536,365,-584,-136,-223,-94,172,332,-178
1,256133,-5536,365,-584,-136,-223,-94,172,332,-178
1,256138,-5538,364,-581,-132,-223,-91,172,332,-178
1,256144,-5538,364,-581,-132,-223,-91,172,332,-178
1,256149,-5538,364,-581,-132,-223,-91,172,332,-178
1,256154,-5537,364,-583,-136,-215,-86,172,332,-178
1,256160,-5537,364,-583,-136,-215,-86,172,332,-178
1,256165,-5537,364,-583,-136,-215,-86,172,332,-178
1,256171,-5537,364,-583,-136,-215,-86,172,332,-178
1,256177,-5539,365,-583,-133,-220,-99,172,332,-178
1,256182,-5539,365,-583,-133,-220,-99,172,332,-178
1,256188,-5539,365,-583,-133,-220,-99,172,332,-178
1,256193,-5539,365,-583,-133,-220,-99,172,332,-178
1,256199,-5539,366,-582,-132,-213,-99,176,332,-184
1,256204,-5539,366,-582,-132,-213,-99,176,332,-184
1,256209,-5539,366,-582,-132,-213,-99,176,332,-184
1,256216,-5541,367,-583,-145,-214,-88,176,332,-184
1,256221,-5541,367,-583,-145,-214,-88,176,332,-184
1,256226,-5541,367,-583,-145,-214,-88,176,332,-184
1,256232,-5541,367,-583,-145,-214,-88,176,332,-184
1,256237,-5536,366,-588,-139,-221,-86,176,332,-184
1,256242,-5536,366,-588,-139,-221,-86,176,332,-184
1,256248,-5536,366,-588,-139,-221,-86,176,332,-184
1,256253,-5536,366,-588,-139,-221,-86,176,332,-184
1,256259,-5541,364,-583,-135,-217,-83,176,332,-184
1,256264,-5541,364,-583,-135,-217,-83,176,332,-184
1,256270,-5541,364,-583,-135,-217,-83,176,332,-184
1,256275,-5538,363,-586,-132,-215,-90,176,332,-184
1,256280,-5538,363,-586,-132,-215,-90,176,332,-184
1,256286,-5538,363,-586,-132,-215,-90,176,332,-184
1,256291,-5538,363,-586,-132,-215,-90,176,332,-184
1,256297,-5538,366,-585,-137,-223,-91,176,332,-184
1,256303,-5538,366,-585,-137,-223,-91,176,332,-184
1,256308,-5538,366,-585,-137,-223,-91,176,332,-184
1,256313,-5538,366,-585,-137,-223,-91,176,332,-184
1,256318,-5539,367,-584,-137,-221,-83,175,329,-173
1,256324,-5539,367,-584,-137,-221,-83,175,329,-173
1,256329,-5539,367,-584,-137,-221,-83,175,329,-173
1,256335,-5538,362,-582,-134,-212,-86,175,329,-173
1,256340,-5538,362,-582,-134,-212,-86,175,329,-173
1,256346,-5538,362,-582,-134,-212,-86,175,329,-173
1,256351,-5538,362,-582,-134,-212,-86,175,329,-173
1,256357,-5537,366,-582,-141,-227,-87,175,329,-173
1,256362,-5537,366,-582,-141,-227,-87,175,329,-173
1,256368,-5537,366,-582,-141,-227,-87,175,329,-173
1,256372,-5537,366,-582,-141,-227,-87,175,329,-173
1,256378,-5539,366,-581,-140,-227,-91,175,329,-173
1,256384,-5539,366,-581,-140,-227,-91,175,329,-173
1,256390,-5539,366,-581,-140,-227,-91,175,329,-173
1,256395,-5538,363,-587,-139,-227,-90,175,329,-173
1,256401,-5538,363,-587,-139,-227,-90,175,329,-173
1,256406,-5538,363,-587,-139,-227,-90,175,329,-173
1,256411,-5538,363,-587,-139,-227,-90,175,329,-173
1,256417,-5539,366,-588,-140,-219,-92,175,329,-173
1,256422,-5539,366,-588,-140,-219,-92,175,329,-173
1,256428,-5539,366,-588,-140,-219,-92,175,329,-173
1,256434,-5539,366,-588,-140,-219,-92,175,329,-173
1,256439,-5539,366,-587,-142,-222,-94,180,336,-174
1,256445,-5539,366,-587,-142,-222,-94,180,336,-174
1,256449,-5539,366,-587,-142,-222,-94,180,336,-174
1,256455,-5539,366,-587,-142,-222,-94,180,336,-174
1,256460,-5539,366,-587,-142,-222,-94,180,336,-174
1,256465,-5539,366,-587,-142,-222,-94,180,336,-174
1,256472,-5539,366,-587,-142,-222,-94,180,336,-174
1,256477,-5537,368,-584,-140,-221,-88,180,336,-174
1,256483,-5537,368,-584,-140,-221,-88,180,336,-174
1,256488,-5537,368,-584,-140,-221,-88,180,336,-174
1,256493,-5537,368,-584,-140,-221,-88,180,336,-174
1,256499,-5536,365,-583,-140,-220,-89,180,336,-174
1,256504,-5536,365,-583,-140,-220,-89,180,336,-174
1,256509,-5536,365,-583,-140,-220,-89,180,336,-174
1,256515,-5538,366,-580,-146,-224,-86,180,336,-174
1,256520,-5538,366,-580,-146,-224,-86,180,336,-174
1,256526,-5538,366,-580,-146,-224,-86,180,336,-174
1,256531,-5538,366,-580,-146,-224,-86,180,336,-174
1,256536,-5540,368,-585,-138,-221,-92,180,336,-174
1,256541,-5540,368,-585,-138,-221,-92,180,336,-174
1,256546,-5540,368,-585,-138,-221,-92,180,336,-174
1,256551,-5540,368,-585,-138,-221,-92,180,336,-174
1,256558,-5540,364,-585,-135,-223,-99,180,336,-174
1,256563,-5540,364,-585,-135,-223,-99,180,336,-174
1,256568,-5540,364,-585,-135,-223,-99,180,336,-174
1,256574,-5540,364,-585,-135,-223,-99,180,336,-174
1,256579,-5537,365,-577,-135,-220,-91,180,336,-174
1,256584,-5537,365,-577,-135,-220,-91,180,336,-174
1,256590,-5537,365,-577,-135,-220,-91,180,336,-174
1,256595,-5537,365,-588,-137,-221,-94,180,336,-174
1,256601,-5537,365,-588,-137,-221,-94,180,336,-174
1,256606,-5537,365,-588,-137,-221,-94,180,336,-174
1,256612,-5537,365,-588,-137,-221,-94,180,336,-174
1,256617,-5537,363,-582,-133,-219,-92,180,336,-174
1,256623,-5537,363,-582,-133,-219,-92,180,336,-174
1,256628,-5537,363,-582,-133,-219,-92,180,336,-174
1,256633,-5537,363,-582,-133,-219,-92,180,336,-174
1,256640,-5541,366,-587,-134,-222,-89,180,336,-174
1,256645,-5541,366,-587,-134,-222,-89,180,336,-174
1,256650,-5541,366,-587,-134,-222,-89,180,336,-174
1,256656,-5538,362,-588,-136,-223,-90,180,336,-174
1,256661,-5538,362,-588,-136,-223,-90,180,336,-174
1,256667,-5538,362,-588,-136,-223,-90,180,336,-174
1,256672,-5538,362,-588,-136,-223,-90,180,336,-174
1,256678,-5538,364,-584,-134,-223,-91,180,336,-174
1,256684,-5538,364,-584,-134,-223,-91,180,336,-174
1,256689,-5538,364,-584,-134,-223,-91,180,336,-174
1,256694,-5538,364,-584,-134,-223,-91,180,336,-174
1,256700,-5540,367,-584,-129,-222,-91,174,340,-178
1,256705,-5540,367,-584,-129,-222,-91,174,340,-178
1,256711,-5540,367,-584,-129,-222,-91,174,340,-178
1,256716,-5536,366,-580,-130,-218,-92,174,340,-178
1,256721,-5536,366,-580,-130,-218,-92,174,340,-178
1,256728,-5536,366,-580,-130,-218,-92,174,340,-178
1,256733,-5536,366,-580,-130,-218,-92,174,340,-178
1,256739,-5540,366,-588,-138,-225,-95,174,340,-178
1,256744,-5540,366,-588,-138,-225,-95,174,340,-178
1,256749,-5540,366,-588,-138,-225,-95,174,340,-178
1,256755,-5539,366,-585,-141,-227,-90,174,340,-178
1,256760,-5539,366,-585,-141,-227,-90,174,340,-178
1,256765,-5539,366,-585,-141,-227,-90,174,340,-178
1,256771,-5539,366,-585,-141,-227,-90,174,340,-178
1,256777,-5538,367,-585,-134,-231,-86,174,340,-178
1,256782,-5538,367,-585,-134,-231,-86,174,340,-178
1,256787,-5538,367,-585,-134,-231,-86,174,340,-178
1,256794,-5538,367,-585,-134,-231,-86,174,340,-178
1,256800,-5538,364,-586,-138,-232,-93,174,340,-178
1,256806,-5538,364,-586,-138,-232,-93,174,340,-178
1,256813,-5538,364,-586,-138,-232,-93,174,340,-178
1,256818,-5536,365,-586,-142,-233,-84,167,337,-175
1,256823,-5536,365,-586,-142,-233,-84,167,337,-175
1,256829,-5536,365,-586,-142,-233,-84,167,337,-175
1,256834,-5536,365,-586,-142,-233,-84,167,337,-175
1,256840,-5537,363,-576,-142,-222,-84,167,337,-175
1,256844,-5537,363,-576,-142,-222,-84,167,337,-175
1,256850,-5537,363,-576,-142,-222,-84,167,337,-175
1,256856,-5538,367,-587,-141,-220,-94,167,337,-175
1,256862,-5538,367,-587,-141,-220,-94,167,337,-175
1,256867,-5538,367,-587,-141,-220,-94,167,337,-175
1,256873,-5538,367,-587,-141,-220,-94,167,337,-175
1,256878,-5538,367,-587,-133,-217,-92,167,337,-175
1,256884,-5538,367,-587,-133,-217,-92,167,337,-175
1,256889,-5538,367,-587,-133,-217,-92,167,337,-175
1,256894,-5538,363,-586,-143,-229,-95,167,337,-175
1,256901,-5538,363,-586,-143,-229,-95,167,337,-175
1,256906,-5538,363,-586,-143,-229,-95,167,337,-175
1,256912,-5538,363,-586,-143,-229,-95,167,337,-175
1,256917,-5535,368,-585,-143,-226,-92,167,337,-175
1,256923,-5535,368,-585,-143,-226,-92,167,337,-175
1,256928,-5535,368,-585,-143,-226,-92,167,337,-175
1,256934,-5535,368,-585,-143,-226,-92,167,337,-175
1,256940,-5534,366,-588,-135,-224,-87,168,326,-180
1,256945,-5534,366,-588,-135,-224,-87,168,326,-180
1,256950,-5534,366,-588,-135,-224,-87,168,326,-180
1,256955,-5537,365,-587,-135,-227,-89,168,326,-180
1,256960,-5537,365,-587,-135,-227,-89,168,326,-180
1,256966,-5537,365,-587,-135,-227,-89,168,326,-180
1,256971,-5537,365,-587,-135,-227,-89,168,326,-180
1,256976,-5538,366,-585,-135,-230,-89,168,326,-180
1,256982,-5538,366,-585,-135,-230,-89,168,326,-180
1,256987,-5538,366,-585,-135,-230,-89,168,326,-180
1,256993,-5538,366,-585,-135,-230,-89,168,326,-180
1,256998,-5537,365,-587,-133,-227,-90,168,326,-180
1,257004,-5537,365,-587,-133,-227,-90,168,326,-180
1,257009,-5537,365,-587,-133,-227,-90,168,326,-180
1,257015,-5535,364,-583,-140,-234,-87,168,326,-180
1,257020,-5535,364,-583,-140,-234,-87,168,326,-180
1,257027,-5535,364,-583,-140,-234,-87,168,326,-180
1,257032,-5535,364,-583,-140,-234,-87,168,326,-180
1,257037,-5537,363,-591,-149,-230,-86,168,326,-180
1,257042,-5537,363,-591,-149,-230,-86,168,326,-180
1,257048,-5537,363,-591,-149,-230,-86,168,326,-180
1,257053,-5537,363,-591,-149,-230,-86,168,326,-180
1,257059,-5539,365,-585,-142,-225,-86,180,336,-178
1,257064,-5539,365,-585,-142,-225,-86,180,336,-178
1,257070,-5539,365,-585,-142,-225,-86,180,336,-178
1,257075,-5537,366,-583,-143,-230,-91,180,336,-178
1,257081,-5537,366,-583,-143,-230,-91,180,336,-178
1,257086,-5537,366,-583,-143,-230,-91,180,336,-178
1,257092,-5537,366,-583,-143,-230,-91,180,336,-178
1,257097,-5536,367,-585,-142,-221,-89,180,336,-178
1,257103,-5536,367,-585,-142,-221,-89,180,336,-178
1,257108,-5536,367,-585,-142,-221,-89,180,336,-178
1,257114,-5536,367,-585,-142,-221,-89,180,336,-178
1,257120,-5538,364,-585,-135,-222,-84,180,336,-178
1,257126,-5538,364,-585,-135,-222,-84,180,336,-178
1,257131,-5538,364,-585,-135,-222,-84,180,336,-178
1,257136,-5539,368,-589,-133,-232,-87,180,336,-178
1,257141,-5539,368,-589,-133,-232,-87,180,336,-178
1,257147,-5539,368,-589,-133,-232,-87,180,336,-178
1,257154,-5539,368,-589,-133,-232,-87,180,336,-178
1,257159,-5536,362,-584,-137,-227,-93,180,336,-178
1,257164,-5536,362,-584,-137,-227,-93,180,336,-178
1,257169,-5536,362,-584,-137,-227,-93,180,336,-178
1,257174,-5536,362,-584,-137,-227,-93,180,336,-178
1,257179,-5540,365,-588,-142,-219,-89,175,339,-177
1,257184,-5540,365,-588,-142,-219,-89,175,339,-177
1,257190,-5540,365,-588,-142,-219,-89,175,339,-177
1,257196,-5538,364,-582,-137,-225,-82,175,339,-177
1,257201,-5538,364,-582,-137,-225,-82,175,339,-177
1,257207,-5538,364,-582,-137,-225,-82,175,339,-177
1,257211,-5538,364,-582,-137,-225,-82,175,339,-177
1,257217,-5537,364,-585,-133,-220,-89,175,339,-177
1,257222,-5537,364,-585,-133,-220,-89,175,339,-177
1,257227,-5537,364,-585,-133,-220,-89,175,339,-177
1,257233,-5537,364,-585,-133,-220,-89,175,339,-177
1,257239,-5538,365,-583,-134,-219,-87,175,339,-177
1,257244,-5538,365,-583,-134,-219,-87,175,339,-177
1,257249,-5538,365,-583,-134,-219,-87,175,339,-177
1,257255,-5538,365,-583,-134,-219,-87,175,339,-177
1,257260,-5538,365,-587,-136,-226,-93,175,339,-177
1,257266,-5538,365,-587,-136,-226,-93,175,339,-177
1,257271,-5538,365,-587,-136,-226,-93,175,339,-177
1,257276,-5537,366,-586,-137,-224,-88,175,339,-177
1,257282,-5537,366,-586,-137,-224,-88,175,339,-177
1,257288,-5537,366,-586,-137,-224,-88,175,339,-177
1,257293,-5537,366,-586,-137,-224,-88,175,339,-177
1,257298,-5540,364,-587,-131,-221,-95,175,339,-177
1,257303,-5540,364,-587,-131,-221,-95,175,339,-177
1,257309,-5540,364,-587,-131,-221,-95,175,339,-177
1,257314,-5540,364,-587,-131,-221,-95,175,339,-177
1,257319,-5541,365,-579,-138,-224,-90,176,334,-176
1,257326,-5541,365,-579,-138,-224,-90,176,334,-176
1,257331,-5541,365,-579,-138,-224,-90,176,334,-176
1,257337,-5536,363,-583,-139,-221,-93,176,334,-176
1,257342,-5536,363,-583,-139,-221,-93,176,334,-176
1,257347,-5536,363,-583,-139,-221,-93,176,334,-176
1,257353,-5536,363,-583,-139,-221,-93,176,334,-176
1,257358,-5536,363,-583,-139,-221,-93,176,334,-176
1,257364,-5536,363,-583,-139,-221,-93,176,334,-176
1,257370,-5536,363,-583,-139,-221,-93,176,334,-176
1,257376,-5535,364,-582,-141,-220,-88,176,334,-176
1,257381,-5535,364,-582,-141,-220,-88,176,334,-176
1,257386,-5535,364,-582,-141,-220,-88,176,334,-176
1,257391,-5535,364,-582,-141,-220,-88,176,334,-176
1,257397,-5537,365,-583,-138,-226,-94,176,334,-176
1,257402,-5537,365,-583,-138,-226,-94,176,334,-176
1,257408,-5537,365,-583,-138,-226,-94,176,334,-176
1,257414,-5537,365,-583,-138,-226,-94,176,334,-176
1,257419,-5538,366,-587,-135,-225,-84,176,334,-176
1,257424,-5538,366,-587,-135,-225,-84,176,334,-176
1,257430,-5538,366,-587,-135,-225,-84,176,334,-176
1,257435,-5537,368,-582,-138,-226,-88,178,342,-182
1,257441,-5537,368,-582,-138,-226,-88,178,342,-182
1,257446,-5537,368,-582,-138,-226,-88,178,342,-182
1,257452,-5537,368,-582,-138,-226,-88,178,342,-182
1,257458,-5534,364,-585,-137,-230,-96,178,342,-182
1,257464,-5534,364,-585,-137,-230,-96,178,342,-182
1,257469,-5534,364,-585,-137,-230,-96,178,342,-182
1,257474,-5534,364,-585,-137,-230,-96,178,342,-182
1,257479,-5537,365,-583,-148,-228,-85,178,342,-182
1,257485,-5537,365,-583,-148,-228,-85,178,342,-182
1,257490,-5537,365,-583,-148,-228,-85,178,342,-182
1,257496,-5539,367,-585,-141,-222,-92,178,342,-182
1,257502,-5539,367,-585,-141,-222,-92,178,342,-182
1,257507,-5539,367,-585,-141,-222,-92,178,342,-182
1,257512,-5539,367,-585,-141,-222,-92,178,342,-182
1,257518,-5537,364,-581,-135,-222,-87,178,342,-182
1,257523,-5537,364,-581,-135,-222,-87,178,342,-182
1,257529,-5537,364,-581,-135,-222,-87,178,342,-182
1,257534,-5537,364,-581,-135,-222,-87,178,342,-182
1,257540,-5537,365,-586,-137,-229,-92,178,342,-182
1,257546,-5537,365,-586,-137,-229,-92,178,342,-182
1,257551,-5537,365,-586,-137,-229,-92,178,342,-182
1,257557,-5539,364,-587,-136,-231,-86,177,329,-177
1,257562,-5539,364,-587,-136,-231,-86,177,329,-177
1,257567,-5539,364,-587,-136,-231,-86,177,329,-177
1,257573,-5539,364,-587,-136,-231,-86,177,329,-177
1,257579,-5539,364,-584,-138,-229,-95,177,329,-177
1,257584,-5539,364,-584,-138,-229,-95,177,329,-177
1,257589,-5539,364,-584,-138,-229,-95,177,329,-177
1,257594,-5539,364,-584,-138,-229,-95,177,329,-177
1,257599,-5538,366,-585,-134,-234,-89,177,329,-177
1,257604,-5538,366,-585,-134,-234,-89,177,329,-177
1,257610,-5538,366,-585,-134,-234,-89,177,329,-177
1,257615,-5538,366,-585,-134,-234,-89,177,329,-177
1,257620,-5538,366,-583,-133,-226,-94,177,329,-177
1,257627,-5538,366,-583,-133,-226,-94,177,329,-177
1,257632,-5538,366,-583,-133,-226,-94,177,329,-177
1,257638,-5536,365,-587,-139,-227,-93,177,329,-177
1,257643,-5536,365,-587,-139,-227,-93,177,329,-177
1,257648,-5536,365,-587,-139,-227,-93,177,329,-177
1,257654,-5536,365,-587,-139,-227,-93,177,329,-177
1,257659,-5537,364,-579,-142,-221,-84,177,329,-177
1,257667,-5537,364,-579,-142,-221,-84,177,329,-177
1,257673,-5537,364,-579,-142,-221,-84,177,329,-177
1,257680,-5539,364,-582,-136,-222,-84,173,333,-171
1,257685,-5539,364,-582,-136,-222,-84,173,333,-171
1,257692,-5539,364,-582,-136,-222,-84,173,333,-171
1,257697,-5537,364,-578,-142,-223,-84,173,333,-171
1,257702,-5537,364,-578,-142,-223,-84,173,333,-171
1,257708,-5537,364,-578,-142,-223,-84,173,333,-171
1,257712,-5537,364,-578,-142,-223,-84,173,333,-171
1,257716,-5537,363,-582,-140,-223,-89,173,333,-171
1,257721,-5537,363,-582,-140,-223,-89,173,333,-171
1,257725,-5537,363,-582,-140,-223,-89,173,333,-171
1,257730,-5537,363,-582,-140,-223,-89,173,333,-171
1,257736,-5540,363,-584,-133,-222,-89,173,333,-171
1,257740,-5540,363,-584,-133,-222,-89,173,333,-171
1,257745,-5540,363,-584,-133,-222,-89,173,333,-171
1,257751,-5540,363,-584,-133,-222,-89,173,333,-171
1,257757,-5539,364,-581,-137,-223,-92,173,333,-171
1,257762,-5539,364,-581,-137,-223,-92,173,333,-171
1,257767,-5539,364,-581,-137,-223,-92,173,333,-171
1,257773,-5539,364,-581,-137,-223,-92,173,333,-171
1,257778,-5541,366,-585,-136,-214,-98,173,333,-171
1,257783,-5541,366,-585,-136,-214,-98,173,333,-171
1,257790,-5541,366,-585,-136,-214,-98,173,333,-171
1,257796,-5537,365,-585,-141,-219,-95,173,333,-171
1,257801,-5537,365,-585,-141,-219,-95,178,330,-186
1,257806,-5537,365,-585,-141,-219,-95,178,330,-186
1,257811,-5537,365,-585,-141,-219,-95,178,330,-186
1,257817,-5535,364,-582,-137,-227,-93,178,330,-186
1,257822,-5535,364,-582,-137,-227,-93,178,330,-186
1,257827,-5535,364,-582,-137,-227,-93,178,330,-186
1,257832,-5535,364,-582,-137,-227,-93,178,330,-186
1,257839,-5538,366,-586,-138,-227,-94,178,330,-186
1,257843,-5538,366,-586,-138,-227,-94,178,330,-186
1,257849,-5538,366,-586,-138,-227,-94,178,330,-186
1,257856,-5538,364,-584,-142,-219,-86,178,330,-186
1,257861,-5538,364,-584,-142,-219,-86,178,330,-186
1,257867,-5538,364,-584,-142,-219,-86,178,330,-186
1,257872,-5538,364,-584,-142,-219,-86,178,330,-186
1,257879,-5539,366,-581,-143,-228,-94,178,330,-186
1,257884,-5539,366,-581,-143,-228,-94,178,330,-186
1,257889,-5539,366,-581,-143,-228,-94,178,330,-186
1,257894,-5539,366,-581,-143,-228,-94,178,330,-186
1,257900,-5540,364,-584,-136,-229,-94,178,330,-186
1,257905,-5540,364,-584,-136,-229,-94,178,330,-186
1,257910,-5540,364,-584,-136,-229,-94,178,330,-186
1,257915,-5539,364,-587,-137,-222,-91,178,336,-176
1,257922,-5539,364,-587,-137,-222,-91,178,336,-176
1,257927,-5539,364,-587,-137,-222,-91,178,336,-176
1,257933,-5539,364,-587,-137,-222,-91,178,336,-176
1,257938,-5541,367,-588,-142,-228,-83,178,336,-176
1,257944,-5541,367,-588,-142,-228,-83,178,336,-176
1,257950,-5541,367,-588,-142,-228,-83,178,336,-176
1,257955,-5541,367,-588,-142,-228,-83,178,336,-176
1,257960,-5539,369,-587,-140,-222,-87,178,336,-176
1,257966,-5539,369,-587,-140,-222,-87,178,336,-176
1,257971,-5539,369,-587,-140,-222,-87,178,336,-176
1,257977,-5537,364,-584,-142,-218,-88,178,336,-176
1,257982,-5537,364,-584,-142,-218,-88,178,336,-176
1,257988,-5537,364,-584,-142,-218,-88,178,336,-176
1,257992,-5537,364,-584,-142,-218,-88,178,336,-176
1,257997,-5538,365,-582,-140,-217,-97,178,336,-176
1,258003,-5538,365,-582,-140,-217,-97,178,336,-176
1,258009,-5538,365,-582,-140,-217,-97,178,336,-176
1,258014,-5538,365,-582,-140,-217,-97,178,336,-176
1,258020,-5539,365,-580,-140,-215,-94,178,336,-176
1,258025,-5539,365,-580,-140,-215,-94,178,336,-176
1,258031,-5539,365,-580,-140,-215,-94,178,336,-176
1,258036,-5536,366,-586,-138,-219,-91,178,336,-176
1,258042,-5536,366,-586,-138,-219,-91,178,336,-176
1,258048,-5536,366,-586,-138,-219,-91,178,336,-176
1,258054,-5536,366,-586,-138,-219,-91,178,336,-176
1,258060,-5537,368,-578,-138,-226,-83,179,331,-177
1,258065,-5537,368,-578,-138,-226,-83,179,331,-177
1,258071,-5537,368,-578,-138,-226,-83,179,331,-177
1,258076,-5538,367,-583,-144,-223,-95,179,331,-177
1,258081,-5538,367,-583,-144,-223,-95,179,331,-177
1,258087,-5538,367,-583,-144,-223,-95,179,331,-177
1,258093,-5538,367,-583,-144,-223,-95,179,331,-177
1,258099,-5541,363,-586,-143,-228,-97,179,331,-177
1,258104,-5541,363,-586,-143,-228,-97,179,331,-177
1,258109,-5541,363,-586,-143,-228,-97,179,331,-177
1,258115,-5541,363,-586,-143,-228,-97,179,331,-177
1,258121,-5535,364,-593,-140,-231,-97,179,331,-177
1,258126,-5535,364,-593,-140,-231,-97,179,331,-177
1,258131,-5535,364,-593,-140,-231,-97,179,331,-177
1,258138,-5538,364,-581,-140,-222,-90,179,331,-177
1,258143,-5538,364,-581,-140,-222,-90,179,331,-177
1,258149,-5538,364,-581,-140,-222,-90,179,331,-177
1,258155,-5538,364,-581,-140,-222,-90,179,331,-177
1,258160,-5538,366,-588,-143,-231,-86,179,331,-177
1,258165,-5538,366,-588,-143,-231,-86,179,331,-177
1,258170,-5538,366,-588,-143,-231,-86,179,331,-177
1,258177,-5538,363,-582,-141,-219,-90,172,332,-170
1,258182,-5538,363,-582,-141,-219,-90,172,332,-170
1,258188,-5538,363,-582,-141,-219,-90,172,332,-170
1,258193,-5538,363,-582,-141,-219,-90,172,332,-170
1,258198,-5540,366,-584,-136,-227,-85,172,332,-170
1,258203,-5540,366,-584,-136,-227,-85,172,332,-170
1,258209,-5540,366,-584,-136,-227,-85,172,332,-170
1,258214,-5540,366,-584,-136,-227,-85,172,332,-170
1,258220,-5540,364,-581,-139,-226,-84,172,332,-170
1,258226,-5540,364,-581,-139,-226,-84,172,332,-170
1,258232,-5540,364,-581,-139,-226,-84,172,332,-170
1,258237,-5537,364,-584,-137,-224,-90,172,332,-170
1,258242,-5537,364,-584,-137,-224,-90,172,332,-170
1,258247,-5537,364,-584,-137,-224,-90,172,332,-170
1,258252,-5537,364,-584,-137,-224,-90,172,332,-170
1,258258,-5536,366,-584,-140,-214,-93,172,332,-170
1,258264,-5536,366,-584,-140,-214,-93,172,332,-170
1,258269,-5536,366,-584,-140,-214,-93,172,332,-170
1,258274,-5536,366,-584,-140,-214,-93,172,332,-170
1,258279,-5541,365,-585,-140,-228,-93,172,332,-170
1,258285,-5541,365,-585,-140,-228,-93,172,332,-170
1,258290,-5541,365,-585,-140,-228,-93,172,332,-170
1,258295,-5541,365,-585,-140,-228,-93,172,332,-170
1,258300,-5537,362,-580,-145,-225,-92,187,329,-171
1,258306,-5537,362,-580,-145,-225,-92,187,329,-171
1,258312,-5537,362,-580,-145,-225,-92,187,329,-171
1,258317,-5537,365,-581,-139,-230,-90,187,329,-171
1,258323,-5537,365,-581,-139,-230,-90,187,329,-171
1,258328,-5537,365,-581,-139,-230,-90,187,329,-171
1,258333,-5537,365,-581,-139,-230,-90,187,329,-171
1,258338,-5538,363,-582,-136,-219,-94,187,329,-171
1,258343,-5538,363,-582,-136,-219,-94,187,329,-171
1,258350,-5538,363,-582,-136,-219,-94,187,329,-171
1,258355,-5538,363,-582,-136,-219,-94,187,329,-171
1,258361,-5534,365,-586,-135,-219,-93,187,329,-171
1,258366,-5534,365,-586,-135,-219,-93,187,329,-171
1,258371,-5534,365,-586,-135,-219,-93,187,329,-171
1,258376,-5538,367,-586,-135,-217,-101,187,329,-171
1,258381,-5538,367,-586,-135,-217,-101,187,329,-171
1,258387,-5538,367,-586,-135,-217,-101,187,329,-171
1,258394,-5538,367,-586,-135,-217,-101,187,329,-171
1,258399,-5536,366,-583,-142,-224,-89,187,329,-171
1,258405,-5536,366,-583,-142,-224,-89,187,329,-171
1,258410,-5536,366,-583,-142,-224,-89,187,329,-171
1,258416,-5536,366,-583,-142,-224,-89,187,329,-171
1,258421,-5538,365,-580,-143,-228,-88,181,337,-179
1,258426,-5538,365,-580,-143,-228,-88,181,337,-179
1,258432,-5538,365,-580,-143,-228,-88,181,337,-179
1,258438,-5537,366,-589,-138,-223,-89,181,337,-179
1,258443,-5537,366,-589,-138,-223,-89,181,337,-179
1,258449,-5537,366,-589,-138,-223,-89,181,337,-179
1,258454,-5537,366,-589,-138,-223,-89,181,337,-179
1,258459,-5539,367,-586,-142,-230,-91,181,337,-179
1,258464,-5539,367,-586,-142,-230,-91,181,337,-179
1,258469,-5539,367,-586,-142,-230,-91,181,337,-179
1,258476,-5539,367,-586,-142,-230,-91,181,337,-179
1,258481,-5537,367,-588,-138,-227,-83,181,337,-179
1,258486,-5537,367,-588,-138,-227,-83,181,337,-179
1,258491,-5537,367,-588,-138,-227,-83,181,337,-179
1,258497,-5537,365,-590,-135,-220,-87,181,337,-179
1,258502,-5537,365,-590,-135,-220,-87,181,337,-179
1,258507,-5537,365,-590,-135,-220,-87,181,337,-179
1,258512,-5537,365,-590,-135,-220,-87,181,337,-179
1,258519,-5535,365,-584,-142,-221,-86,181,337,-179
1,258524,-5535,365,-584,-142,-221,-86,181,337,-179
1,258529,-5535,365,-584,-142,-221,-86,181,337,-179
1,258535,-5535,365,-584,-142,-221,-86,181,337,-179
1,258540,-5539,366,-581,-135,-221,-89,183,333,-175
1,258545,-5539,366,-581,-135,-221,-89,183,333,-175
1,258551,-5539,366,-581,-135,-221,-89,183,333,-175
1,258556,-5538,363,-578,-135,-217,-85,183,333,-175
1,258562,-5538,363,-578,-135,-217,-85,183,333,-175
1,258567,-5538,363,-578,-135,-217,-85,183,333,-175
1,258572,-5538,363,-578,-135,-217,-85,183,333,-175
1,258577,-5538,364,-583,-127,-224,-85,183,333,-175
1,258583,-5538,364,-583,-127,-224,-85,183,333,-175
1,258588,-5538,364,-583,-127,-224,-85,183,333,-175
1,258593,-5538,364,-583,-127,-224,-85,183,333,-175
1,258598,-5538,361,-587,-136,-225,-93,183,333,-175
1,258605,-5538,361,-587,-136,-225,-93,183,333,-175
1,258611,-5538,361,-587,-136,-225,-93,183,333,-175
1,258616,-5538,361,-587,-136,-225,-93,183,333,-175
1,258621,-5535,365,-588,-134,-226,-93,183,333,-175
1,258627,-5535,365,-588,-134,-226,-93,183,333,-175
1,258632,-5535,365,-588,-134,-226,-93,183,333,-175
1,258637,-5535,367,-591,-141,-222,-87,183,333,-175
1,258642,-5535,367,-591,-141,-222,-87,183,333,-175
1,258649,-5535,367,-591,-141,-222,-87,183,333,-175
1,258655,-5535,367,-591,-141,-222,-87,183,333,-175
1,258660,-5537,364,-587,-139,-225,-90,174,330,-174
1,258665,-5537,364,-587,-139,-225,-90,174,330,-174
1,258671,-5537,364,-587,-139,-225,-90,174,330,-174
1,258676,-5537,364,-587,-139,-225,-90,174,330,-174
1,258681,-5538,363,-580,-136,-233,-91,174,330,-174
1,258686,-5538,363,-580,-136,-233,-91,174,330,-174
1,258693,-5538,363,-580,-136,-233,-91,174,330,-174
1,258698,-5538,366,-588,-137,-226,-94,174,330,-174
1,258704,-5538,366,-588,-137,-226,-94,174,330,-174
1,258709,-5538,366,-588,-137,-226,-94,174,330,-174
1,258714,-5538,366,-588,-137,-226,-94,174,330,-174
1,258720,-5535,366,-584,-138,-225,-87,174,330,-174
1,258725,-5535,366,-584,-138,-225,-87,174,330,-174
1,258731,-5535,366,-584,-138,-225,-87,174,330,-174
1,258737,-5540,365,-587,-141,-224,-84,174,330,-174
1,258743,-5540,365,-587,-141,-224,-84,174,330,-174
1,258748,-5540,365,-587,-141,-224,-84,174,330,-174
1,258753,-5540,365,-587,-141,-224,-84,174,330,-174
1,258758,-5535,363,-584,-134,-226,-91,174,330,-174
1,258764,-5535,363,-584,-134,-226,-91,174,330,-174
1,258769,-5535,363,-584,-134,-226,-91,174,330,-174
1,258776,-5535,363,-584,-134,-226,-91,174,330,-174
1,258782,-5539,365,-582,-135,-221,-90,174,330,-174
1,258787,-5539,365,-582,-135,-221,-90,174,330,-174
1,258793,-5539,365,-582,-135,-221,-90,174,330,-174
1,258798,-5538,365,-580,-135,-217,-90,176,338,-170
1,258804,-5538,365,-580,-135,-217,-90,176,338,-170
1,258809,-5538,365,-580,-135,-217,-90,176,338,-170
1,258813,-5538,365,-580,-135,-217,-90,176,338,-170
1,258820,-5539,364,-586,-134,-221,-89,176,338,-170
1,258825,-5539,364,-586,-134,-221,-89,176,338,-170
1,258830,-5539,364,-586,-134,-221,-89,176,338,-170
1,258836,-5539,364,-586,-134,-221,-89,176,338,-170
1,258841,-5538,366,-583,-133,-222,-91,176,338,-170
1,258846,-5538,366,-583,-133,-222,-91,176,338,-170
1,258851,-5538,366,-583,-133,-222,-91,176,338,-170
1,258857,-5537,366,-584,-133,-224,-99,176,338,-170
1,258863,-5537,366,-584,-133,-224,-99,176,338,-170
1,258869,-5537,366,-584,-133,-224,-99,176,338,-170
1,258873,-5537,366,-584,-133,-224,-99,176,338,-170
1,258879,-5536,363,-590,-139,-224,-99,176,338,-170
1,258884,-5536,363,-590,-139,-224,-99,176,338,-170
1,258890,-5536,363,-590,-139,-224,-99,176,338,-170
1,258895,-5536,363,-590,-139,-224,-99,176,338,-170
1,258902,-5536,365,-583,-136,-222,-95,176,338,-170
1,258908,-5536,365,-583,-136,-222,-95,176,338,-170
1,258913,-5536,365,-583,-136,-222,-95,176,338,-170
1,258919,-5537,366,-585,-133,-221,-91,179,329,-177
1,258924,-5537,366,-585,-133,-221,-91,179,329,-177
1,258930,-5537,366,-585,-133,-221,-91,179,329,-177
1,258935,-5537,366,-585,-133,-221,-91,179,329,-177
1,258941,-5541,364,-584,-140,-221,-84,179,329,-177
1,258947,-5541,364,-584,-140,-221,-84,179,329,-177
1,258952,-5541,364,-584,-140,-221,-84,179,329,-177
1,258958,-5535,364,-577,-135,-222,-92,179,329,-177
1,258963,-5535,364,-577,-135,-222,-92,179,329,-177
1,258969,-5535,364,-577,-135,-222,-92,179,329,-177
1,258974,-5535,364,-577,-135,-222,-92,179,329,-177
1,258979,-5534,366,-587,-135,-219,-102,179,329,-177
1,258985,-5534,366,-587,-135,-219,-102,179,329,-177
1,258991,-5534,366,-587,-135,-219,-102,179,329,-177
1,258996,-5534,366,-587,-135,-219,-102,179,329,-177
1,259002,-5538,367,-586,-135,-216,-92,179,329,-177
1,259007,-5538,367,-586,-135,-216,-92,179,329,-177
1,259012,-5538,367,-586,-135,-216,-92,179,329,-177
1,259018,-5537,362,-585,-133,-222,-96,179,329,-177
1,259023,-5537,362,-585,-133,-222,-96,179,329,-177
1,259030,-5537,362,-585,-133,-222,-96,179,329,-177
1,259036,-5537,362,-585,-133,-222,-96,179,329,-177
1,259041,-5538,364,-583,-143,-231,-93,176,336,-176
1,259047,-5538,364,-583,-143,-231,-93,176,336,-176
1,259052,-5538,364,-583,-143,-231,-93,176,336,-176
1,259057,-5538,363,-584,-142,-223,-88,176,336,-176
1,259063,-5538,363,-584,-142,-223,-88,176,336,-176
1,259068,-5538,363,-584,-142,-223,-88,176,336,-176
1,259074,-5538,363,-584,-142,-223,-88,176,336,-176
1,259080,-5538,363,-584,-142,-223,-88,176,336,-176
1,259086,-5538,363,-584,-142,-223,-88,176,336,-176
1,259091,-5538,363,-584,-142,-223,-88,176,336,-176
1,259096,-5538,363,-584,-142,-223,-88,176,336,-176
1,259101,-5538,363,-587,-137,-227,-91,176,336,-176
1,259107,-5538,363,-587,-137,-227,-91,176,336,-176
1,259112,-5538,363,-587,-137,-227,-91,176,336,-176
1,259119,-5539,366,-585,-142,-222,-94,176,336,-176
1,259125,-5539,366,-585,-142,-222,-94,176,336,-176
1,259130,-5539,366,-585,-142,-222,-94,176,336,-176
1,259135,-5539,366,-585,-142,-222,-94,176,336,-176
1,259141,-5538,364,-585,-141,-234,-87,176,336,-176
1,259146,-5538,364,-585,-141,-234,-87,176,336,-176
1,259151,-5538,364,-585,-141,-234,-87,176,336,-176
1,259156,-5538,364,-584,-140,-220,-81,176,336,-176
1,259163,-5538,364,-584,-140,-220,-81,187,331,-177
1,259169,-5538,364,-584,-140,-220,-81,187,331,-177
1,259174,-5538,364,-584,-140,-220,-81,187,331,-177
1,259179,-5536,362,-586,-135,-212,-86,187,331,-177
1,259185,-5536,362,-586,-135,-212,-86,187,331,-177
1,259189,-5536,362,-586,-135,-212,-86,187,331,-177
1,259195,-5536,362,-586,-135,-212,-86,187,331,-177
1,259201,-5536,364,-583,-136,-222,-93,187,331,-177
1,259207,-5536,364,-583,-136,-222,-93,187,331,-177
1,259212,-5536,364,-583,-136,-222,-93,187,331,-177
1,259218,-5538,366,-585,-133,-225,-86,187,331,-177
1,259223,-5538,366,-585,-133,-225,-86,187,331,-177
1,259229,-5538,366,-585,-133,-225,-86,187,331,-177
1,259234,-5538,366,-585,-133,-225,-86,187,331,-177
1,259239,-5537,366,-586,-134,-223,-85,187,331,-177
1,259245,-5537,366,-586,-134,-223,-85,187,331,-177
1,259251,-5537,366,-586,-134,-223,-85,187,331,-177
1,259257,-5537,366,-586,-134,-223,-85,187,331,-177
1,259262,-5539,365,-585,-133,-223,-85,187,331,-177
1,259267,-5539,365,-585,-133,-223,-85,187,331,-177
1,259272,-5539,365,-585,-133,-223,-85,187,331,-177
1,259278,-5538,367,-587,-132,-223,-85,179,331,-175
1,259283,-5538,367,-587,-132,-223,-85,179,331,-175
1,259290,-5538,367,-587,-132,-223,-85,179,331,-175
1,259295,-5538,367,-587,-132,-223,-85,179,331,-175
1,259300,-5539,366,-582,-139,-224,-86,179,331,-175
1,259306,-5539,366,-582,-139,-224,-86,179,331,-175
1,259311,-5539,366,-582,-139,-224,-86,179,331,-175
1,259316,-5539,366,-582,-139,-224,-86,179,331,-175
1,259322,-5537,366,-585,-138,-226,-94,179,331,-175
1,259328,-5537,366,-585,-138,-226,-94,179,331,-175
1,259334,-5537,366,-585,-138,-226,-94,179,331,-175
1,259339,-5538,363,-582,-133,-230,-103,179,331,-175
1,259345,-5538,363,-582,-133,-230,-103,179,331,-175
1,259350,-5538,363,-582,-133,-230,-103,179,331,-175
1,259356,-5538,363,-582,-133,-230,-103,179,331,-175
1,259361,-5537,361,-588,-135,-218,-93,179,331,-175
1,259367,-5537,361,-588,-135,-218,-93,179,331,-175
1,259373,-5537,361,-588,-135,-218,-93,179,331,-175
1,259378,-5538,363,-583,-131,-230,-88,179,331,-175
1,259384,-5538,363,-583,-131,-230,-88,179,331,-175
1,259389,-5538,363,-583,-131,-230,-88,179,331,-175
1,259395,-5538,363,-583,-131,-230,-88,179,331,-175
1,259400,-5539,364,-584,-133,-232,-88,179,331,-175
1,259405,-5539,364,-584,-133,-232,-88,179,331,-175
1,259410,-5539,364,-584,-133,-232,-88,179,331,-175
1,259416,-5539,364,-584,-133,-232,-88,179,331,-175
1,259422,-5537,364,-582,-138,-224,-81,175,337,-185
1,259427,-5537,364,-582,-138,-224,-81,175,337,-185
1,259433,-5537,364,-582,-138,-224,-81,175,337,-185
1,259438,-5538,367,-581,-134,-222,-88,175,337,-185
1,259444,-5538,367,-581,-134,-222,-88,175,337,-185
1,259449,-5538,367,-581,-134,-222,-88,175,337,-185
1,259456,-5538,367,-581,-134,-222,-88,175,337,-185
1,259461,-5537,365,-580,-134,-219,-87,175,337,-185
1,259467,-5537,365,-580,-134,-219,-87,175,337,-185
1,259473,-5537,365,-580,-134,-219,-87,175,337,-185
1,259478,-5535,363,-581,-133,-221,-87,175,337,-185
1,259483,-5535,363,-581,-133,-221,-87,175,337,-185
1,259489,-5535,363,-581,-133,-221,-87,175,337,-185
1,259495,-5535,363,-581,-133,-221,-87,175,337,-185
1,259502,-5538,367,-585,-139,-233,-95,175,337,-185
1,259507,-5538,367,-585,-139,-233,-95,175,337,-185
1,259512,-5538,367,-585,-139,-233,-95,175,337,-185
1,259518,-5539,365,-585,-135,-220,-86,175,337,-185
1,259523,-5539,365,-585,-135,-220,-86,175,337,-185
1,259528,-5539,365,-585,-135,-220,-86,175,337,-185
1,259533,-5539,365,-585,-135,-220,-86,175,337,-185
1,259538,-5540,366,-581,-134,-228,-86,171,333,-179
1,259544,-5540,366,-581,-134,-228,-86,171,333,-179
1,259550,-5540,366,-581,-134,-228,-86,171,333,-179
1,259555,-5540,366,-581,-134,-228,-86,171,333,-179
1,259561,-5537,366,-583,-135,-230,-90,171,333,-179
1,259566,-5537,366,-583,-135,-230,-90,171,333,-179
1,259571,-5537,366,-583,-135,-230,-90,171,333,-179
1,259576,-5537,366,-583,-135,-230,-90,171,333,-179
1,259582,-5536,367,-581,-138,-225,-90,171,333,-179
1,259588,-5536,367,-581,-138,-225,-90,171,333,-179
1,259593,-5536,367,-581,-138,-225,-90,171,333,-179
1,259599,-5538,365,-582,-139,-226,-93,171,333,-179
1,259604,-5538,365,-582,-139,-226,-93,171,333,-179
1,259610,-5538,365,-582,-139,-226,-93,171,333,-179
1,259615,-5538,365,-582,-139,-226,-93,171,333,-179
1,259620,-5534,365,-587,-136,-235,-82,171,333,-179
1,259625,-5534,365,-587,-136,-235,-82,171,333,-179
1,259632,-5534,365,-587,-136,-235,-82,171,333,-179
1,259638,-5538,365,-592,-136,-233,-97,171,333,-179
1,259643,-5538,365,-592,-136,-233,-97,171,333,-179
1,259648,-5538,365,-592,-136,-233,-97,171,333,-179
1,259654,-5538,365,-592,-136,-233,-97,171,333,-179
1,259659,-5537,362,-585,-141,-227,-88,180,332,-174
1,259664,-5537,362,-585,-141,-227,-88,180,332,-174
1,259671,-5537,362,-585,-141,-227,-88,180,332,-174
1,259676,-5537,362,-585,-141,-227,-88,180,332,-174
1,259682,-5537,362,-582,-141,-229,-96,180,332,-174
1,259687,-5537,362,-582,-141,-229,-96,180,332,-174
1,259693,-5537,362,-582,-141,-229,-96,180,332,-174
1,259699,-5538,364,-586,-136,-229,-89,180,332,-174
1,259704,-5538,364,-586,-136,-229,-89,180,332,-174
1,259710,-5538,364,-586,-136,-229,-89,180,332,-174
1,259716,-5538,364,-586,-136,-229,-89,180,332,-174
1,259722,-5538,366,-583,-135,-227,-93,180,332,-174
1,259727,-5538,366,-583,-135,-227,-93,180,332,-174
1,259732,-5538,366,-583,-135,-227,-93,180,332,-174
1,259737,-5538,366,-583,-135,-227,-93,180,332,-174
1,259742,-5540,367,-587,-130,-221,-93,180,332,-174
1,259748,-5540,367,-587,-130,-221,-93,180,332,-174
1,259753,-5540,367,-587,-130,-221,-93,180,332,-174
1,259759,-5535,361,-581,-130,-223,-93,180,332,-174
1,259764,-5535,361,-581,-130,-223,-93,180,332,-174
1,259770,-5535,361,-581,-130,-223,-93,180,332,-174
1,259775,-5535,361,-581,-130,-223,-93,180,332,-174
1,259781,-5537,363,-583,-138,-227,-94,184,328,-168
1,259786,-5537,363,-583,-138,-227,-94,184,328,-168
1,259791,-5537,363,-583,-138,-227,-94,184,328,-168
1,259796,-5537,363,-583,-138,-227,-94,184,328,-168
1,259802,-5540,367,-585,-139,-234,-90,184,328,-168
1,259808,-5540,367,-585,-139,-234,-90,184,328,-168
1,259813,-5540,367,-585,-139,-234,-90,184,328,-168
1,259819,-5537,366,-584,-143,-231,-90,184,328,-168
1,259824,-5537,366,-584,-143,-231,-90,184,328,-168
1,259829,-5537,366,-584,-143,-231,-90,184,328,-168
1,259834,-5537,366,-584,-143,-231,-90,184,328,-168
1,259841,-5539,366,-580,-142,-228,-90,184,328,-168
1,259846,-5539,366,-580,-142,-228,-90,184,328,-168
1,259851,-5539,366,-580,-142,-228,-90,184,328,-168
1,259856,-5539,366,-580,-142,-228,-90,184,328,-168
1,259862,-5535,362,-584,-142,-222,-86,184,328,-168
1,259868,-5535,362,-584,-142,-222,-86,184,328,-168
1,259873,-5535,362,-584,-142,-222,-86,184,328,-168
1,259878,-5536,365,-585,-140,-229,-91,184,328,-168
1,259884,-5536,365,-585,-140,-229,-91,184,328,-168
1,259890,-5536,365,-585,-140,-229,-91,184,328,-168
1,259895,-5536,365,-585,-140,-229,-91,184,328,-168
1,259901,-5536,366,-586,-137,-227,-94,168,332,-176
1,259908,-5536,366,-586,-137,-227,-94,168,332,-176
1,259914,-5536,366,-586,-137,-227,-94,168,332,-176
1,259919,-5537,366,-580,-138,-225,-86,168,332,-176
1,259926,-5537,366,-580,-138,-225,-86,168,332,-176
1,259932,-5537,366,-580,-138,-225,-86,168,332,-176
1,259937,-5537,366,-580,-138,-225,-86,168,332,-176
1,259942,-5537,365,-581,-134,-224,-92,168,332,-176
1,259948,-5537,365,-581,-134,-224,-92,168,332,-176
1,259953,-5537,365,-581,-134,-224,-92,168,332,-176
1,259959,-5540,366,-588,-133,-224,-84,168,332,-176
1,259964,-5540,366,-588,-133,-224,-84,168,332,-176
1,259971,-5540,366,-588,-133,-224,-84,168,332,-176
1,259976,-5540,366,-588,-133,-224,-84,168,332,-176
1,259982,-5540,366,-588,-133,-224,-84,168,332,-176
1,259987,-5540,366,-588,-133,-224,-84,168,332,-176
1,259992,-5540,366,-588,-133,-224,-84,168,332,-176
1,259998,-5540,365,-586,-137,-219,-90,168,332,-176
1,260003,-5540,365,-586,-137,-219,-90,168,332,-176
1,260009,-5540,365,-586,-137,-219,-90,168,332,-176
1,260015,-5540,365,-586,-137,-219,-90,168,332,-176
1,260021,-5539,364,-582,-135,-232,-91,166,336,-170
1,260026,-5539,364,-582,-135,-232,-91,166,336,-170
1,260031,-5539,364,-582,-135,-232,-91,166,336,-170
1,260036,-5539,364,-582,-135,-232,-91,166,336,-170
1,260042,-5541,364,-583,-134,-222,-94,166,336,-170
1,260047,-5541,364,-583,-134,-222,-94,166,336,-170
1,260054,-5541,364,-583,-134,-222,-94,166,336,-170
1,260059,-5540,365,-586,-133,-223,-101,166,336,-170
1,260065,-5540,365,-586,-133,-223,-101,166,336,-170
1,260069,-5540,365,-586,-133,-223,-101,166,336,-170
1,260076,-5540,365,-586,-133,-223,-101,166,336,-170
1,260081,-5539,366,-582,-137,-225,-95,166,336,-170
1,260086,-5539,366,-582,-137,-225,-95,166,336,-170
1,260091,-5539,366,-582,-137,-225,-95,166,336,-170
1,260098,-5539,366,-582,-137,-225,-95,166,336,-170
1,260103,-5536,365,-581,-141,-226,-96,166,336,-170
1,260108,-5536,365,-581,-141,-226,-96,166,336,-170
1,260113,-5536,365,-581,-141,-226,-96,166,336,-170
1,260118,-5534,364,-583,-141,-220,-88,166,336,-170
1,260123,-5534,364,-583,-141,-220,-88,166,336,-170
1,260128,-5534,364,-583,-141,-220,-88,166,336,-170
1,260134,-5534,364,-583,-141,-220,-88,166,336,-170
1,260140,-5538,362,-585,-139,-212,-85,166,336,-170
1,260145,-5538,362,-585,-139,-212,-85,166,336,-170
1,260151,-5538,362,-585,-139,-212,-85,166,336,-170
1,260156,-5538,362,-585,-139,-212,-85,166,336,-170
1,260161,-5538,367,-576,-140,-226,-87,179,335,-171
1,260167,-5538,367,-576,-140,-226,-87,179,335,-171
1,260172,-5538,367,-576,-140,-226,-87,179,335,-171
1,260177,-5538,367,-576,-140,-226,-87,179,335,-171
1,260184,-5540,367,-583,-138,-222,-94,179,335,-171
1,260189,-5540,367,-583,-138,-222,-94,179,335,-171
1,260194,-5540,367,-583,-138,-222,-94,179,335,-171
1,260199,-5536,365,-584,-141,-221,-87,179,335,-171
1,260205,-5536,365,-584,-141,-221,-87,179,335,-171
1,260210,-5536,365,-584,-141,-221,-87,179,335,-171
1,260216,-5536,365,-584,-141,-221,-87,179,335,-171
1,260221,-5540,365,-583,-142,-226,-95,179,335,-171
1,260227,-5540,365,-583,-142,-226,-95,179,335,-171
1,260233,-5540,365,-583,-142,-226,-95,179,335,-171
1,260238,-5540,365,-583,-142,-226,-95,179,335,-171
1,260243,-5539,364,-584,-141,-227,-93,179,335,-171
1,260248,-5539,364,-584,-141,-227,-93,179,335,-171
1,260254,-5539,364,-584,-141,-227,-93,179,335,-171
1,260259,-5539,365,-579,-142,-232,-93,179,335,-171
1,260264,-5539,365,-579,-142,-232,-93,179,335,-171
1,260271,-5539,365,-579,-142,-232,-93,179,335,-171
1,260276,-5539,365,-579,-142,-232,-93,179,335,-171
1,260282,-5538,364,-581,-142,-222,-91,179,341,-175
1,260287,-5538,364,-581,-142,-222,-91,179,341,-175
1,260292,-5538,364,-581,-142,-222,-91,179,341,-175
1,260297,-5538,364,-581,-142,-222,-91,179,341,-175
1,260302,-5539,366,-582,-134,-216,-90,179,341,-175
1,260307,-5539,366,-582,-134,-216,-90,179,341,-175
1,260314,-5539,366,-582,-134,-216,-90,179,341,-175
1,260319,-5540,363,-583,-133,-231,-87,179,341,-175
1,260324,-5540,363,-583,-133,-231,-87,179,341,-175
1,260330,-5540,363,-583,-133,-231,-87,179,341,-175
1,260335,-5540,363,-583,-133,-231,-87,179,341,-175
1,260341,-5539,364,-584,-130,-227,-91,179,341,-175
1,260346,-5539,364,-584,-130,-227,-91,179,341,-175
1,260352,-5539,364,-584,-130,-227,-91,179,341,-175
1,260357,-5539,364,-584,-130,-227,-91,179,341,-175
1,260365,-5541,366,-589,-131,-220,-92,179,341,-175
1,260370,-5541,366,-589,-131,-220,-92,179,341,-175
1,260375,-5541,366,-589,-131,-220,-92,179,341,-175
1,260381,-5538,366,-584,-133,-226,-90,179,341,-175
1,260386,-5538,366,-584,-133,-226,-90,179,341,-175
1,260392,-5538,366,-584,-133,-226,-90,179,341,-175
1,260398,-5538,366,-584,-133,-226,-90,179,341,-175
1,260404,-5539,366,-585,-136,-229,-90,171,335,-177
1,260409,-5539,366,-585,-136,-229,-90,171,335,-177
1,260414,-5539,366,-585,-136,-229,-90,171,335,-177
1,260420,-5540,364,-583,-136,-229,-88,171,335,-177
1,260425,-5540,364,-583,-136,-229,-88,171,335,-177
1,260431,-5540,364,-583,-136,-229,-88,171,335,-177
1,260438,-5540,364,-583,-136,-229,-88,171,335,-177
1,260443,-5537,366,-588,-136,-231,-89,171,335,-177
1,260448,-5537,366,-588,-136,-231,-89,171,335,-177
1,260453,-5537,366,-588,-136,-231,-89,171,335,-177
1,260458,-5541,366,-582,-136,-226,-95,171,335,-177
1,260464,-5541,366,-582,-136,-226,-95,171,335,-177
1,260469,-5541,366,-582,-136,-226,-95,171,335,-177
1,260475,-5541,366,-582,-136,-226,-95,171,335,-177
1,260482,-5538,365,-582,-140,-229,-86,171,335,-177
1,260487,-5538,365,-582,-140,-229,-86,171,335,-177
1,260493,-5538,365,-582,-140,-229,-86,171,335,-177
1,260498,-5538,365,-582,-140,-229,-86,171,335,-177
1,260504,-5537,365,-582,-138,-226,-90,171,335,-177
1,260509,-5537,365,-582,-138,-226,-90,171,335,-177
1,260514,-5537,365,-582,-138,-226,-90,171,335,-177
