imu,time,ax,ay,az,gx,gy,gz,mx,my,mz
2,103329,187,170,1669,-1027,-574,-324,116,152,-14
2,103339,186,167,1674,-1029,-572,-333,116,152,-14
2,103347,186,167,1674,-1029,-572,-333,116,152,-14
2,103356,186,167,1674,-1029,-572,-333,116,152,-14
2,103365,186,168,1666,-1026,-581,-337,116,152,-14
2,103373,186,168,1666,-1026,-581,-337,116,152,-14
2,103382,183,167,1670,-1024,-578,-327,116,152,-14
2,103389,183,167,1670,-1024,-578,-327,116,152,-14
2,103396,183,167,1670,-1024,-578,-327,116,152,-14
2,103403,184,167,1673,-1017,-578,-328,116,152,-14
2,103410,184,167,1673,-1017,-578,-328,116,152,-14
2,103416,184,167,1673,-1017,-578,-328,116,152,-14
2,103422,188,167,1675,-1025,-578,-331,116,152,-24
2,103428,188,167,1675,-1025,-578,-331,116,152,-24
2,103434,188,167,1675,-1025,-578,-331,116,152,-24
2,103441,186,168,1678,-1024,-578,-335,116,152,-24
2,103446,186,168,1678,-1024,-578,-335,116,152,-24
2,103452,186,168,1678,-1024,-578,-335,116,152,-24
2,103458,186,165,1673,-1034,-572,-332,116,152,-24
2,103465,186,165,1673,-1034,-572,-332,116,152,-24
2,103472,186,165,1673,-1034,-572,-332,116,152,-24
2,103478,186,167,1674,-1037,-572,-333,116,152,-24
2,103484,186,167,1674,-1037,-572,-333,116,152,-24
2,103490,186,167,1674,-1037,-572,-333,116,152,-24
2,103496,186,167,1674,-1037,-572,-333,116,152,-24
2,103502,188,169,1672,-1031,-576,-331,116,152,-24
2,103508,188,169,1672,-1031,-576,-331,116,152,-24
2,103516,188,169,1672,-1031,-576,-331,116,152,-24
2,103522,186,167,1669,-1025,-573,-330,116,152,-24
2,103528,186,167,1669,-1025,-573,-330,116,152,-24
2,103534,186,167,1669,-1025,-573,-330,116,152,-24
2,103539,184,168,1674,-1029,-570,-324,120,152,-18
2,103547,184,168,1674,-1029,-570,-324,120,152,-18
2,103553,184,168,1674,-1029,-570,-324,120,152,-18
2,103558,185,166,1676,-1026,-569,-333,120,152,-18
2,103564,185,166,1676,-1026,-569,-333,120,152,-18
2,103569,185,166,1676,-1026,-569,-333,120,152,-18
2,103575,185,166,1676,-1026,-569,-333,120,152,-18
2,103581,191,164,1674,-1027,-573,-332,120,152,-18
2,103586,191,164,1674,-1027,-573,-332,120,152,-18
2,103592,191,164,1674,-1027,-573,-332,120,152,-18
2,103598,187,168,1678,-1028,-580,-331,120,152,-18
2,103604,187,168,1678,-1028,-580,-331,120,152,-18
2,103609,187,168,1678,-1028,-580,-331,120,152,-18
2,103615,187,168,1678,-1028,-580,-331,120,152,-18
2,103621,185,166,1671,-1019,-578,-331,120,152,-18
2,103627,185,166,1671,-1019,-578,-331,120,152,-18
2,103632,185,166,1671,-1019,-578,-331,120,152,-18
2,103639,187,169,1679,-1030,-572,-331,120,152,-18
2,103644,187,169,1679,-1030,-572,-331,120,152,-18
2,103650,187,169,1679,-1030,-572,-331,120,152,-18
2,103656,187,169,1679,-1030,-572,-331,120,152,-18
2,103662,185,169,1673,-1030,-578,-329,116,158,-18
2,103669,185,169,1673,-1030,-578,-329,116,158,-18
2,103674,185,169,1673,-1030,-578,-329,116,158,-18
2,103680,186,168,1678,-1029,-580,-329,116,158,-18
2,103686,186,168,1678,-1029,-580,-329,116,158,-18
2,103691,186,168,1678,-1029,-580,-329,116,158,-18
2,103696,186,168,1678,-1029,-580,-329,116,158,-18
2,103701,182,167,1677,-1036,-576,-326,116,158,-18
2,103708,182,167,1677,-1036,-576,-326,116,158,-18
2,103715,182,167,1677,-1036,-576,-326,116,158,-18
2,103725,186,167,1670,-1036,-577,-326,116,158,-18
2,103731,186,167,1670,-1036,-577,-326,116,158,-18
2,103738,189,170,1670,-1029,-572,-332,116,158,-18
2,103744,189,170,1670,-1029,-572,-332,116,158,-18
2,103749,189,170,1670,-1029,-572,-332,116,158,-18
2,103755,189,170,1670,-1029,-572,-332,116,158,-18
2,103760,185,169,1667,-1031,-575,-321,116,158,-18
2,103766,185,169,1667,-1031,-575,-321,116,158,-18
2,103771,185,169,1667,-1031,-575,-321,116,158,-18
2,103777,185,169,1667,-1031,-575,-321,116,158,-18
2,103782,186,165,1674,-1030,-573,-328,116,158,-18
2,103788,186,165,1674,-1030,-573,-328,116,158,-18
2,103793,186,165,1674,-1030,-573,-328,116,158,-18
2,103799,186,168,1677,-1026,-573,-323,114,156,-14
2,103805,186,168,1677,-1026,-573,-323,114,156,-14
2,103811,186,168,1677,-1026,-573,-323,114,156,-14
2,103817,186,168,1677,-1026,-573,-323,114,156,-14
2,103821,184,169,1671,-1020,-569,-324,114,156,-14
2,103827,184,169,1671,-1020,-569,-324,114,156,-14
2,103833,184,169,1671,-1020,-569,-324,114,156,-14
2,103838,185,171,1676,-1020,-578,-326,114,156,-14
2,103844,185,171,1676,-1020,-578,-326,114,156,-14
2,103849,185,171,1676,-1020,-578,-326,114,156,-14
2,103856,185,171,1676,-1020,-578,-326,114,156,-14
2,103861,184,168,1676,-1020,-573,-326,114,156,-14
2,103867,184,168,1676,-1020,-573,-326,114,156,-14
2,103872,184,168,1676,-1020,-573,-326,114,156,-14
2,103878,187,168,1668,-1023,-572,-322,114,156,-14
2,103884,187,168,1668,-1023,-572,-322,114,156,-14
2,103889,187,168,1668,-1023,-572,-322,114,156,-14
2,103896,187,168,1668,-1023,-572,-322,114,156,-14
2,103901,183,165,1671,-1026,-574,-331,114,156,-14
2,103907,183,165,1671,-1026,-574,-331,114,156,-14
2,103912,183,165,1671,-1026,-574,-331,114,156,-14
2,103918,188,168,1677,-1030,-578,-327,112,156,-18
2,103924,188,168,1677,-1030,-578,-327,112,156,-18
2,103929,188,168,1677,-1030,-578,-327,112,156,-18
2,103934,188,168,1677,-1030,-578,-327,112,156,-18
2,103941,186,169,1674,-1034,-578,-324,112,156,-18
2,103947,186,169,1674,-1034,-578,-324,112,156,-18
2,103952,186,169,1674,-1034,-578,-324,112,156,-18
2,103958,183,171,1675,-1031,-580,-323,112,156,-18
2,103963,183,171,1675,-1031,-580,-323,112,156,-18
2,103970,183,171,1675,-1031,-580,-323,112,156,-18
2,103976,183,171,1675,-1031,-580,-323,112,156,-18
2,103982,185,168,1680,-1024,-568,-328,112,156,-18
2,103987,185,168,1680,-1024,-568,-328,112,156,-18
2,103992,185,168,1680,-1024,-568,-328,112,156,-18
2,103998,186,169,1673,-1020,-566,-334,112,156,-18
2,104003,186,169,1673,-1020,-566,-334,112,156,-18
2,104007,186,169,1673,-1020,-566,-334,112,156,-18
2,104012,186,169,1673,-1020,-566,-334,112,156,-18
2,104017,185,166,1667,-1024,-567,-326,112,156,-18
2,104023,185,166,1667,-1024,-567,-326,112,156,-18
2,104029,185,166,1667,-1024,-567,-326,112,156,-18
2,104034,185,166,1667,-1024,-567,-326,112,156,-18
2,104039,187,166,1666,-1033,-576,-330,112,156,-18
2,104044,187,166,1666,-1033,-576,-330,112,156,-18
2,104049,187,166,1666,-1033,-576,-330,112,156,-18
2,104054,187,166,1666,-1033,-576,-330,112,156,-18
2,104059,187,168,1677,-1029,-567,-329,122,152,-24
2,104065,187,168,1677,-1029,-567,-329,122,152,-24
2,104071,187,168,1677,-1029,-567,-329,122,152,-24
2,104076,187,168,1677,-1029,-567,-329,122,152,-24
2,104082,185,169,1676,-1026,-569,-326,122,152,-24
2,104088,185,169,1676,-1026,-569,-326,122,152,-24
2,104093,185,169,1676,-1026,-569,-326,122,152,-24
2,104099,187,168,1674,-1029,-573,-328,122,152,-24
2,104105,187,168,1674,-1029,-573,-328,122,152,-24
2,104112,187,168,1674,-1029,-573,-328,122,152,-24
2,104118,189,164,1677,-1028,-576,-319,122,152,-24
2,104124,189,164,1677,-1028,-576,-319,122,152,-24
2,104130,189,164,1677,-1028,-576,-319,122,152,-24
2,104135,189,164,1677,-1028,-576,-319,122,152,-24
2,104141,183,168,1669,-1032,-573,-331,122,152,-24
2,104147,183,168,1669,-1032,-573,-331,122,152,-24
2,104154,183,168,1669,-1032,-573,-331,122,152,-24
2,104159,186,167,1669,-1030,-571,-324,122,152,-24
2,104165,186,167,1669,-1030,-571,-324,122,152,-24
2,104171,186,167,1669,-1030,-571,-324,122,152,-24
2,104177,186,167,1669,-1030,-571,-324,122,152,-24
2,104183,185,166,1679,-1027,-574,-324,119,151,-23
2,104188,185,166,1679,-1027,-574,-324,119,151,-23
2,104195,185,166,1679,-1027,-574,-324,119,151,-23
2,104200,187,169,1675,-1024,-580,-329,119,151,-23
2,104205,187,169,1675,-1024,-580,-329,119,151,-23
2,104211,187,169,1675,-1024,-580,-329,119,151,-23
2,104216,187,169,1675,-1024,-580,-329,119,151,-23
2,104221,186,170,1678,-1025,-581,-327,119,151,-23
2,104227,186,170,1678,-1025,-581,-327,119,151,-23
2,104233,186,170,1678,-1025,-581,-327,119,151,-23
2,104240,187,170,1672,-1035,-574,-324,119,151,-23
2,104245,187,170,1672,-1035,-574,-324,119,151,-23
2,104251,187,170,1672,-1035,-574,-324,119,151,-23
2,104257,187,170,1672,-1035,-574,-324,119,151,-23
2,104262,188,168,1674,-1029,-579,-329,119,151,-23
2,104267,188,168,1674,-1029,-579,-329,119,151,-23
2,104274,188,168,1674,-1029,-579,-329,119,151,-23
2,104280,185,170,1667,-1030,-577,-329,119,151,-23
2,104287,185,170,1667,-1030,-577,-329,119,151,-23
2,104292,185,170,1667,-1030,-577,-329,119,151,-23
2,104298,187,168,1678,-1026,-573,-322,121,151,-23
2,104304,187,168,1678,-1026,-573,-322,121,151,-23
2,104310,187,168,1678,-1026,-573,-322,121,151,-23
2,104315,187,168,1678,-1026,-573,-322,121,151,-23
2,104321,189,167,1679,-1025,-581,-326,121,151,-23
2,104327,189,167,1679,-1025,-581,-326,121,151,-23
2,104332,189,167,1679,-1025,-581,-326,121,151,-23
2,104339,184,170,1676,-1031,-578,-328,121,151,-23
2,104344,184,170,1676,-1031,-578,-328,121,151,-23
2,104350,184,170,1676,-1031,-578,-328,121,151,-23
2,104355,184,170,1676,-1031,-578,-328,121,151,-23
2,104360,184,166,1673,-1033,-575,-334,121,151,-23
2,104366,184,166,1673,-1033,-575,-334,121,151,-23
2,104371,184,166,1673,-1033,-575,-334,121,151,-23
2,104376,184,166,1673,-1033,-575,-334,121,151,-23
2,104381,184,166,1673,-1033,-575,-334,121,151,-23
2,104385,184,166,1673,-1033,-575,-334,121,151,-23
2,104391,184,166,1673,-1033,-575,-334,121,151,-23
2,104395,184,166,1673,-1033,-575,-334,121,151,-23
2,104400,187,167,1674,-1032,-583,-327,121,151,-23
2,104406,187,167,1674,-1032,-583,-327,121,151,-23
2,104411,187,167,1674,-1032,-583,-327,121,151,-23
2,104416,187,167,1674,-1032,-583,-327,121,151,-23
2,104421,188,166,1671,-1025,-578,-328,121,151,-23
2,104426,188,166,1671,-1025,-578,-328,121,151,-23
2,104430,188,166,1671,-1025,-578,-328,121,151,-23
2,104435,188,166,1671,-1025,-578,-328,121,151,-23
2,104440,185,167,1678,-1029,-574,-331,120,152,-12
2,104445,185,167,1678,-1029,-574,-331,120,152,-12
2,104451,185,167,1678,-1029,-574,-331,120,152,-12
2,104456,185,167,1678,-1029,-574,-331,120,152,-12
2,104462,185,167,1673,-1026,-577,-329,120,152,-12
2,104467,185,167,1673,-1026,-577,-329,120,152,-12
2,104472,185,167,1673,-1026,-577,-329,120,152,-12
2,104477,185,167,1673,-1026,-577,-329,120,152,-12
2,104482,186,169,1672,-1030,-575,-328,120,152,-12
2,104487,186,169,1672,-1030,-575,-328,120,152,-12
2,104494,186,169,1672,-1030,-575,-328,120,152,-12
2,104499,187,166,1674,-1022,-570,-329,120,152,-12
2,104506,187,166,1674,-1022,-570,-329,120,152,-12
2,104513,187,166,1674,-1022,-570,-329,120,152,-12
2,104520,189,167,1674,-1023,-573,-326,120,152,-12
2,104526,189,167,1674,-1023,-573,-326,120,152,-12
2,104532,189,167,1674,-1023,-573,-326,120,152,-12
2,104540,186,169,1670,-1032,-576,-330,120,152,-12
2,104546,186,169,1670,-1032,-576,-330,120,152,-12
2,104552,186,169,1670,-1032,-576,-330,120,152,-12
2,104558,186,169,1670,-1032,-576,-330,120,152,-12
2,104564,187,172,1680,-1028,-578,-321,118,154,-22
2,104569,187,172,1680,-1028,-578,-321,118,154,-22
2,104577,187,172,1680,-1028,-578,-321,118,154,-22
2,104583,189,170,1677,-1036,-574,-330,118,154,-22
2,104589,189,170,1677,-1036,-574,-330,118,154,-22
2,104595,189,170,1677,-1036,-574,-330,118,154,-22
2,104601,187,166,1676,-1024,-574,-328,118,154,-22
2,104606,187,166,1676,-1024,-574,-328,118,154,-22
2,104611,187,166,1676,-1024,-574,-328,118,154,-22
2,104619,185,167,1677,-1021,-576,-330,118,154,-22
2,104624,185,167,1677,-1021,-576,-330,118,154,-22
2,104629,185,167,1677,-1021,-576,-330,118,154,-22
2,104635,185,167,1677,-1021,-576,-330,118,154,-22
2,104640,187,168,1680,-1027,-579,-322,118,154,-22
2,104646,187,168,1680,-1027,-579,-322,118,154,-22
2,104651,187,168,1680,-1027,-579,-322,118,154,-22
2,104656,187,168,1680,-1027,-579,-322,118,154,-22
2,104663,185,165,1673,-1024,-572,-316,118,154,-22
2,104668,185,165,1673,-1024,-572,-316,118,154,-22
2,104674,185,165,1673,-1024,-572,-316,118,154,-22
2,104679,184,167,1673,-1021,-572,-328,118,154,-22
2,104684,184,167,1673,-1021,-572,-328,118,154,-22
2,104690,184,167,1673,-1021,-572,-328,118,154,-22
2,104695,184,167,1673,-1021,-572,-328,118,154,-22
2,104700,183,167,1680,-1029,-572,-329,116,144,-12
2,104707,183,167,1680,-1029,-572,-329,116,144,-12
2,104714,183,167,1680,-1029,-572,-329,116,144,-12
2,104720,187,168,1678,-1031,-578,-328,116,144,-12
2,104725,187,168,1678,-1031,-578,-328,116,144,-12
2,104731,187,168,1678,-1031,-578,-328,116,144,-12
2,104736,187,168,1678,-1031,-578,-328,116,144,-12
2,104741,185,168,1673,-1025,-566,-333,116,144,-12
2,104748,185,168,1673,-1025,-566,-333,116,144,-12
2,104753,185,168,1673,-1025,-566,-333,116,144,-12
2,104759,188,169,1670,-1024,-571,-330,116,144,-12
2,104764,188,169,1670,-1024,-571,-330,116,144,-12
2,104769,188,169,1670,-1024,-571,-330,116,144,-12
2,104775,188,169,1670,-1024,-571,-330,116,144,-12
2,104780,186,170,1674,-1028,-576,-325,116,144,-12
2,104786,186,170,1674,-1028,-576,-325,116,144,-12
2,104793,186,170,1674,-1028,-576,-325,116,144,-12
2,104799,185,168,1673,-1028,-576,-328,116,144,-12
2,104804,185,168,1673,-1028,-576,-328,116,144,-12
2,104810,185,168,1673,-1028,-576,-328,116,144,-12
2,104817,185,168,1673,-1028,-576,-328,116,144,-12
2,104823,185,166,1681,-1032,-579,-323,120,152,-18
2,104829,185,166,1681,-1032,-579,-323,120,152,-18
2,104835,185,166,1681,-1032,-579,-323,120,152,-18
2,104840,187,167,1671,-1026,-576,-326,120,152,-18
2,104846,187,167,1671,-1026,-576,-326,120,152,-18
2,104852,187,167,1671,-1026,-576,-326,120,152,-18
2,104857,187,167,1671,-1026,-576,-326,120,152,-18
2,104863,186,168,1676,-1028,-575,-329,120,152,-18
2,104868,186,168,1676,-1028,-575,-329,120,152,-18
2,104875,186,168,1676,-1028,-575,-329,120,152,-18
2,104880,187,168,1675,-1031,-579,-324,120,152,-18
2,104886,187,168,1675,-1031,-579,-324,120,152,-18
2,104891,187,168,1675,-1031,-579,-324,120,152,-18
2,104896,187,168,1675,-1031,-579,-324,120,152,-18
2,104902,188,168,1673,-1030,-570,-324,120,152,-18
2,104907,188,168,1673,-1030,-570,-324,120,152,-18
2,104912,188,168,1673,-1030,-570,-324,120,152,-18
2,104919,188,168,1673,-1030,-570,-324,120,152,-18
2,104924,185,167,1674,-1024,-572,-328,120,152,-18
2,104929,185,167,1674,-1024,-572,-328,120,152,-18
2,104935,185,167,1674,-1024,-572,-328,120,152,-18
2,104941,186,166,1675,-1021,-566,-329,116,150,-20
2,104946,186,166,1675,-1021,-566,-329,116,150,-20
2,104951,186,166,1675,-1021,-566,-329,116,150,-20
2,104956,186,166,1675,-1021,-566,-329,116,150,-20
2,104963,188,169,1680,-1012,-569,-323,116,150,-20
2,104968,188,169,1680,-1012,-569,-323,116,150,-20
2,104974,188,169,1680,-1012,-569,-323,116,150,-20
2,104979,185,168,1671,-1023,-577,-325,116,150,-20
2,104984,185,168,1671,-1023,-577,-325,116,150,-20
2,104991,185,168,1671,-1023,-577,-325,116,150,-20
2,104996,185,168,1671,-1023,-577,-325,116,150,-20
2,105001,181,166,1674,-1033,-577,-334,116,150,-20
2,105009,181,166,1674,-1033,-577,-334,116,150,-20
2,105015,181,166,1674,-1033,-577,-334,116,150,-20
2,105021,186,170,1670,-1028,-577,-333,116,150,-20
2,105026,186,170,1670,-1028,-577,-333,116,150,-20
2,105031,186,170,1670,-1028,-577,-333,116,150,-20
2,105037,186,170,1670,-1028,-577,-333,116,150,-20
2,105042,188,170,1676,-1026,-581,-318,116,150,-20
2,105049,188,170,1676,-1026,-581,-318,116,150,-20
2,105055,188,170,1676,-1026,-581,-318,116,150,-20
2,105060,185,166,1674,-1023,-577,-327,116,150,-20
2,105065,185,166,1674,-1023,-577,-327,116,150,-20
2,105071,185,166,1674,-1023,-577,-327,116,150,-20
2,105076,185,166,1674,-1023,-577,-327,116,150,-20
2,105082,186,169,1680,-1023,-573,-334,112,150,-22
2,105089,186,169,1680,-1023,-573,-334,112,150,-22
2,105094,186,169,1680,-1023,-573,-334,112,150,-22
2,105099,186,167,1670,-1024,-563,-321,112,150,-22
2,105104,186,167,1670,-1024,-563,-321,112,150,-22
2,105110,186,167,1670,-1024,-563,-321,112,150,-22
2,105115,186,167,1670,-1024,-563,-321,112,150,-22
2,105120,188,170,1678,-1024,-576,-324,112,150,-22
2,105126,188,170,1678,-1024,-576,-324,112,150,-22
2,105132,188,170,1678,-1024,-576,-324,112,150,-22
2,105138,188,170,1678,-1024,-576,-324,112,150,-22
2,105143,188,166,1672,-1024,-573,-323,112,150,-22
2,105148,188,166,1672,-1024,-573,-323,112,150,-22
2,105154,188,166,1672,-1024,-573,-323,112,150,-22
2,105159,186,167,1676,-1027,-577,-328,112,150,-22
2,105164,186,167,1676,-1027,-577,-328,112,150,-22
2,105170,186,167,1676,-1027,-577,-328,112,150,-22
2,105176,186,167,1676,-1027,-577,-328,112,150,-22
2,105181,187,163,1674,-1021,-577,-330,112,150,-22
2,105187,187,163,1674,-1021,-577,-330,112,150,-22
2,105192,187,163,1674,-1021,-577,-330,112,150,-22
2,105199,184,170,1678,-1022,-573,-328,112,150,-22
2,105205,184,170,1678,-1022,-573,-328,112,150,-20
2,105211,184,170,1678,-1022,-573,-328,112,150,-20
2,105217,184,170,1678,-1022,-573,-328,112,150,-20
2,105223,184,167,1680,-1032,-568,-326,112,150,-20
2,105229,184,167,1680,-1032,-568,-326,112,150,-20
2,105234,184,167,1680,-1032,-568,-326,112,150,-20
2,105240,183,169,1682,-1029,-571,-332,112,150,-20
2,105246,183,169,1682,-1029,-571,-332,112,150,-20
2,105251,183,169,1682,-1029,-571,-332,112,150,-20
2,105257,183,169,1682,-1029,-571,-332,112,150,-20
2,105263,184,165,1664,-1020,-576,-322,112,150,-20
2,105268,184,165,1664,-1020,-576,-322,112,150,-20
2,105274,184,165,1664,-1020,-576,-322,112,150,-20
2,105280,185,164,1669,-1022,-574,-325,112,150,-20
2,105286,185,164,1669,-1022,-574,-325,112,150,-20
2,105293,185,164,1669,-1022,-574,-325,112,150,-20
2,105300,187,166,1671,-1026,-571,-324,112,150,-20
2,105308,187,166,1671,-1026,-571,-324,112,150,-20
2,105313,187,166,1671,-1026,-571,-324,112,150,-20
2,105319,184,166,1673,-1021,-573,-324,112,150,-20
2,105326,184,166,1673,-1021,-573,-324,112,150,-20
2,105332,184,166,1673,-1021,-573,-324,112,150,-20
2,105338,184,166,1673,-1021,-573,-324,112,150,-20
2,105344,186,168,1677,-1024,-572,-339,115,149,-15
2,105351,186,168,1677,-1024,-572,-339,115,149,-15
2,105357,186,168,1677,-1024,-572,-339,115,149,-15
2,105364,184,168,1675,-1031,-571,-322,115,149,-15
2,105370,184,168,1675,-1031,-571,-322,115,149,-15
2,105377,184,168,1675,-1031,-571,-322,115,149,-15
2,105383,188,168,1671,-1022,-568,-327,115,149,-15
2,105391,188,168,1671,-1022,-568,-327,115,149,-15
2,105397,188,168,1671,-1022,-568,-327,115,149,-15
2,105402,190,164,1672,-1029,-574,-320,115,149,-15
2,105408,190,164,1672,-1029,-574,-320,115,149,-15
2,105414,190,164,1672,-1029,-574,-320,115,149,-15
2,105420,187,165,1674,-1028,-576,-325,115,149,-15
2,105425,187,165,1674,-1028,-576,-325,115,149,-15
2,105431,187,165,1674,-1028,-576,-325,115,149,-15
2,105436,187,165,1674,-1028,-576,-325,115,149,-15
2,105441,186,165,1669,-1027,-568,-328,115,149,-15
2,105446,186,165,1669,-1027,-568,-328,115,149,-15
2,105451,186,165,1669,-1027,-568,-328,115,149,-15
2,105457,186,165,1669,-1027,-568,-328,115,149,-15
2,105463,187,166,1678,-1026,-576,-331,119,157,-15
2,105468,187,166,1678,-1026,-576,-331,119,157,-15
2,105475,187,166,1678,-1026,-576,-331,119,157,-15
2,105480,184,167,1673,-1027,-579,-329,119,157,-15
2,105486,184,167,1673,-1027,-579,-329,119,157,-15
2,105491,184,167,1673,-1027,-579,-329,119,157,-15
2,105496,184,167,1673,-1027,-579,-329,119,157,-15
2,105502,186,168,1674,-1032,-581,-329,119,157,-15
2,105507,186,168,1674,-1032,-581,-329,119,157,-15
2,105512,186,168,1674,-1032,-581,-329,119,157,-15
2,105519,186,168,1674,-1032,-581,-329,119,157,-15
2,105524,186,168,1675,-1018,-573,-333,119,157,-15
2,105529,186,168,1675,-1018,-573,-333,119,157,-15
2,105535,186,168,1675,-1018,-573,-333,119,157,-15
2,105541,184,167,1668,-1022,-572,-335,119,157,-15
2,105547,184,167,1668,-1022,-572,-335,119,157,-15
2,105553,184,167,1668,-1022,-572,-335,119,157,-15
2,105559,184,167,1668,-1022,-572,-335,119,157,-15
2,105565,186,166,1671,-1027,-575,-331,119,157,-15
2,105572,186,166,1671,-1027,-575,-331,119,157,-15
2,105577,186,166,1671,-1027,-575,-331,119,157,-15
2,105582,185,168,1672,-1018,-574,-327,113,155,-15
2,105587,185,168,1672,-1018,-574,-327,113,155,-15
2,105592,185,168,1672,-1018,-574,-327,113,155,-15
2,105597,185,168,1672,-1018,-574,-327,113,155,-15
2,105603,186,168,1682,-1021,-576,-327,113,155,-15
2,105607,186,168,1682,-1021,-576,-327,113,155,-15
2,105612,186,168,1682,-1021,-576,-327,113,155,-15
2,105617,186,168,1682,-1021,-576,-327,113,155,-15
2,105622,191,170,1673,-1032,-578,-326,113,155,-15
2,105627,191,170,1673,-1032,-578,-326,113,155,-15
2,105632,191,170,1673,-1032,-578,-326,113,155,-15
2,105637,191,170,1673,-1032,-578,-326,113,155,-15
2,105643,188,167,1674,-1030,-576,-326,113,155,-15
2,105649,188,167,1674,-1030,-576,-326,113,155,-15
2,105653,188,167,1674,-1030,-576,-326,113,155,-15
2,105660,183,167,1678,-1023,-572,-331,113,155,-15
2,105665,183,167,1678,-1023,-572,-331,113,155,-15
2,105670,183,167,1678,-1023,-572,-331,113,155,-15
2,105676,183,167,1678,-1023,-572,-331,113,155,-15
2,105682,186,168,1672,-1020,-571,-332,113,155,-15
2,105688,186,168,1672,-1020,-571,-332,113,155,-15
2,105694,186,168,1672,-1020,-571,-332,113,155,-15
2,105700,187,167,1673,-1027,-584,-323,113,155,-15
2,105706,187,167,1673,-1027,-584,-323,113,155,-15
2,105711,187,167,1673,-1027,-584,-323,113,155,-15
2,105717,187,167,1673,-1027,-584,-323,113,155,-15
2,105723,185,167,1677,-1033,-581,-330,117,145,-17
2,105729,185,167,1677,-1033,-581,-330,117,145,-17
2,105735,185,167,1677,-1033,-581,-330,117,145,-17
2,105741,185,166,1679,-1025,-583,-331,117,145,-17
2,105748,185,166,1679,-1025,-583,-331,117,145,-17
2,105755,185,166,1679,-1025,-583,-331,117,145,-17
2,105762,186,170,1669,-1027,-579,-325,117,145,-17
2,105768,186,170,1669,-1027,-579,-325,117,145,-17
2,105774,186,170,1669,-1027,-579,-325,117,145,-17
2,105780,187,170,1672,-1031,-580,-330,117,145,-17
2,105787,187,170,1672,-1031,-580,-330,117,145,-17
2,105793,187,170,1672,-1031,-580,-330,117,145,-17
2,105800,184,168,1675,-1023,-573,-333,117,145,-17
2,105807,184,168,1675,-1023,-573,-333,117,145,-17
2,105814,184,168,1675,-1023,-573,-333,117,145,-17
2,105820,184,166,1676,-1024,-575,-324,117,145,-17
2,105825,184,166,1676,-1024,-575,-324,117,145,-17
2,105830,184,166,1676,-1024,-575,-324,117,145,-17
2,105835,184,166,1676,-1024,-575,-324,117,145,-17
2,105840,186,167,1672,-1028,-574,-329,115,147,-23
2,105845,186,167,1672,-1028,-574,-329,115,147,-23
2,105850,186,167,1672,-1028,-574,-329,115,147,-23
2,105857,186,167,1672,-1028,-574,-329,115,147,-23
2,105862,184,167,1672,-1021,-573,-325,115,147,-23
2,105867,184,167,1672,-1021,-573,-325,115,147,-23
2,105873,184,167,1672,-1021,-573,-325,115,147,-23
2,105878,184,167,1672,-1021,-573,-325,115,147,-23
2,105883,185,168,1679,-1028,-578,-324,115,147,-23
2,105889,185,168,1679,-1028,-578,-324,115,147,-23
2,105894,185,168,1679,-1028,-578,-324,115,147,-23
2,105901,183,165,1671,-1028,-577,-331,115,147,-23
2,105907,183,165,1671,-1028,-577,-331,115,147,-23
2,105913,183,165,1671,-1028,-577,-331,115,147,-23
2,105918,183,165,1671,-1028,-577,-331,115,147,-23
2,105924,187,170,1670,-1018,-573,-326,115,147,-23
2,105929,187,170,1670,-1018,-573,-326,115,147,-23
2,105935,187,170,1670,-1018,-573,-326,115,147,-23
2,105940,188,165,1675,-1020,-579,-330,115,147,-23
2,105947,188,165,1675,-1020,-579,-330,115,147,-23
2,105952,188,165,1675,-1020,-579,-330,115,147,-23
2,105958,188,165,1675,-1020,-579,-330,115,147,-23
2,105964,188,166,1673,-1018,-577,-330,115,147,-23
2,105969,188,166,1673,-1018,-577,-330,115,147,-23
2,105975,188,166,1673,-1018,-577,-330,115,147,-23
2,105981,187,169,1678,-1027,-580,-329,120,156,-6
2,105988,187,169,1678,-1027,-580,-329,120,156,-6
2,105993,187,169,1678,-1027,-580,-329,120,156,-6
2,105999,187,169,1678,-1027,-580,-329,120,156,-6
2,106004,186,168,1670,-1032,-585,-323,120,156,-6
2,106010,186,168,1670,-1032,-585,-323,120,156,-6
2,106015,186,168,1670,-1032,-585,-323,120,156,-6
2,106021,184,167,1675,-1041,-581,-333,120,156,-6
2,106027,184,167,1675,-1041,-581,-333,120,156,-6
2,106032,184,167,1675,-1041,-581,-333,120,156,-6
2,106037,184,167,1675,-1041,-581,-333,120,156,-6
2,106042,184,166,1672,-1036,-576,-320,120,156,-6
2,106048,184,166,1672,-1036,-576,-320,120,156,-6
2,106054,184,166,1672,-1036,-576,-320,120,156,-6
2,106060,185,167,1673,-1029,-569,-326,120,156,-6
2,106065,185,167,1673,-1029,-569,-326,120,156,-6
2,106072,185,167,1673,-1029,-569,-326,120,156,-6
2,106077,185,167,1673,-1029,-569,-326,120,156,-6
2,106082,186,167,1680,-1026,-569,-330,120,156,-6
2,106087,186,167,1680,-1026,-569,-330,120,156,-6
2,106093,186,167,1680,-1026,-569,-330,120,156,-6
2,106098,186,167,1680,-1026,-569,-330,120,156,-6
2,106104,183,167,1679,-1022,-571,-335,115,149,-21
2,106110,183,167,1679,-1022,-571,-335,115,149,-21
2,106116,183,167,1679,-1022,-571,-335,115,149,-21
2,106121,185,169,1677,-1027,-573,-328,115,149,-21
2,106127,185,169,1677,-1027,-573,-328,115,149,-21
2,106132,185,169,1677,-1027,-573,-328,115,149,-21
2,106137,185,169,1677,-1027,-573,-328,115,149,-21
2,106142,183,168,1677,-1022,-575,-324,115,149,-21
2,106148,183,168,1677,-1022,-575,-324,115,149,-21
2,106153,183,168,1677,-1022,-575,-324,115,149,-21
2,106160,183,168,1677,-1022,-575,-324,115,149,-21
2,106165,187,164,1676,-1025,-573,-327,115,149,-21
2,106171,187,164,1676,-1025,-573,-327,115,149,-21
2,106177,187,164,1676,-1025,-573,-327,115,149,-21
2,106182,186,165,1680,-1023,-566,-331,115,149,-21
2,106188,186,165,1680,-1023,-566,-331,115,149,-21
2,106193,186,165,1680,-1023,-566,-331,115,149,-21
2,106200,189,166,1674,-1023,-571,-328,115,149,-21
2,106206,189,166,1674,-1023,-571,-328,115,149,-21
2,106212,189,166,1674,-1023,-571,-328,115,149,-21
2,106217,189,166,1674,-1023,-571,-328,115,149,-21
2,106222,186,169,1676,-1019,-569,-324,118,152,-16
2,106228,186,169,1676,-1019,-569,-324,118,152,-16
2,106234,186,169,1676,-1019,-569,-324,118,152,-16
2,106241,185,165,1680,-1020,-579,-323,118,152,-16
2,106246,185,165,1680,-1020,-579,-323,118,152,-16
2,106252,185,165,1680,-1020,-579,-323,118,152,-16
2,106259,185,165,1680,-1020,-579,-323,118,152,-16
2,106265,186,167,1675,-1023,-570,-336,118,152,-16
2,106270,186,167,1675,-1023,-570,-336,118,152,-16
2,106276,186,167,1675,-1023,-570,-336,118,152,-16
2,106281,186,169,1673,-1025,-575,-325,118,152,-16
2,106288,186,169,1673,-1025,-575,-325,118,152,-16
2,106293,186,169,1673,-1025,-575,-325,118,152,-16
2,106298,186,169,1673,-1025,-575,-325,118,152,-16
2,106304,186,169,1673,-1025,-575,-325,118,152,-16
2,106310,186,169,1673,-1025,-575,-325,118,152,-16
2,106315,186,169,1673,-1025,-575,-325,118,152,-16
2,106320,186,169,1673,-1025,-575,-325,118,152,-16
2,106326,186,169,1673,-1025,-575,-325,118,152,-16
2,106332,186,169,1673,-1025,-575,-325,118,152,-16
2,106337,186,169,1673,-1025,-575,-325,118,152,-16
2,106342,186,166,1668,-1030,-578,-322,118,152,-16
2,106347,186,166,1668,-1030,-578,-322,118,152,-16
2,106353,186,166,1668,-1030,-578,-322,118,152,-16
2,106358,186,166,1668,-1030,-578,-322,118,152,-16
2,106364,185,168,1674,-1035,-574,-327,116,152,-18
2,106372,185,168,1674,-1035,-574,-327,116,152,-18
2,106377,185,168,1674,-1035,-574,-327,116,152,-18
2,106382,185,169,1671,-1030,-576,-327,116,152,-18
2,106388,185,169,1671,-1030,-576,-327,116,152,-18
2,106393,185,169,1671,-1030,-576,-327,116,152,-18
2,106398,185,169,1671,-1030,-576,-327,116,152,-18
2,106403,186,167,1673,-1032,-577,-330,116,152,-18
2,106409,186,167,1673,-1032,-577,-330,116,152,-18
2,106415,186,167,1673,-1032,-577,-330,116,152,-18
2,106420,186,167,1673,-1032,-577,-330,116,152,-18
2,106426,184,165,1666,-1022,-570,-328,116,152,-18
2,106431,184,165,1666,-1022,-570,-328,116,152,-18
2,106436,184,165,1666,-1022,-570,-328,116,152,-18
2,106442,187,167,1671,-1026,-574,-330,116,152,-18
2,106447,187,167,1671,-1026,-574,-330,116,152,-18
2,106454,187,167,1671,-1026,-574,-330,116,152,-18
2,106460,187,167,1671,-1026,-574,-330,116,152,-18
2,106465,185,170,1676,-1019,-574,-326,116,152,-18
2,106470,185,170,1676,-1019,-574,-326,116,152,-18
2,106475,185,170,1676,-1019,-574,-326,116,152,-18
2,106480,186,168,1681,-1018,-574,-336,116,152,-18
2,106486,186,168,1681,-1018,-574,-336,115,153,-23
2,106491,186,168,1681,-1018,-574,-336,115,153,-23
2,106498,186,168,1681,-1018,-574,-336,115,153,-23
2,106503,185,168,1672,-1022,-573,-332,115,153,-23
2,106509,185,168,1672,-1022,-573,-332,115,153,-23
2,106514,185,168,1672,-1022,-573,-332,115,153,-23
2,106519,185,168,1672,-1022,-573,-332,115,153,-23
2,106524,183,166,1675,-1034,-580,-335,115,153,-23
2,106529,183,166,1675,-1034,-580,-335,115,153,-23
2,106534,183,166,1675,-1034,-580,-335,115,153,-23
2,106540,183,166,1675,-1034,-580,-335,115,153,-23
2,106546,185,172,1676,-1022,-573,-329,115,153,-23
2,106551,185,172,1676,-1022,-573,-329,115,153,-23
2,106557,185,172,1676,-1022,-573,-329,115,153,-23
2,106562,187,168,1668,-1020,-577,-328,115,153,-23
2,106567,187,168,1668,-1020,-577,-328,115,153,-23
2,106572,187,168,1668,-1020,-577,-328,115,153,-23
2,106577,187,168,1668,-1020,-577,-328,115,153,-23
2,106583,187,164,1679,-1017,-580,-327,115,153,-23
2,106589,187,164,1679,-1017,-580,-327,115,153,-23
2,106595,187,164,1679,-1017,-580,-327,115,153,-23
2,106600,187,164,1679,-1017,-580,-327,115,153,-23
2,106606,189,171,1672,-1028,-575,-328,115,153,-23
2,106612,189,171,1672,-1028,-575,-328,115,153,-23
2,106618,189,171,1672,-1028,-575,-328,115,153,-23
2,106624,185,170,1676,-1022,-575,-325,119,153,-21
2,106630,185,170,1676,-1022,-575,-325,119,153,-21
2,106635,185,170,1676,-1022,-575,-325,119,153,-21
2,106640,185,170,1676,-1022,-575,-325,119,153,-21
2,106645,185,169,1678,-1027,-573,-326,119,153,-21
2,106651,185,169,1678,-1027,-573,-326,119,153,-21
2,106657,185,169,1678,-1027,-573,-326,119,153,-21
2,106662,185,168,1676,-1018,-578,-320,119,153,-21
2,106668,185,168,1676,-1018,-578,-320,119,153,-21
2,106674,185,168,1676,-1018,-578,-320,119,153,-21
2,106680,185,168,1676,-1018,-578,-320,119,153,-21
2,106685,182,170,1674,-1027,-572,-324,119,153,-21
2,106691,182,170,1674,-1027,-572,-324,119,153,-21
2,106697,182,170,1674,-1027,-572,-324,119,153,-21
2,106702,183,170,1674,-1038,-570,-325,119,153,-21
2,106708,183,170,1674,-1038,-570,-325,119,153,-21
2,106715,183,170,1674,-1038,-570,-325,119,153,-21
2,106720,183,170,1674,-1038,-570,-325,119,153,-21
2,106726,184,166,1674,-1039,-570,-322,119,153,-21
2,106731,184,166,1674,-1039,-570,-322,119,153,-21
2,106737,184,166,1674,-1039,-570,-322,119,153,-21
2,106743,187,167,1674,-1028,-574,-323,115,143,-19
2,106748,187,167,1674,-1028,-574,-323,115,143,-19
2,106755,187,167,1674,-1028,-574,-323,115,143,-19
2,106760,187,167,1674,-1028,-574,-323,115,143,-19
2,106766,187,168,1673,-1035,-577,-327,115,143,-19
2,106772,187,168,1673,-1035,-577,-327,115,143,-19
2,106778,187,168,1673,-1035,-577,-327,115,143,-19
2,106783,187,170,1668,-1030,-575,-328,115,143,-19
2,106789,187,170,1668,-1030,-575,-328,115,143,-19
2,106795,187,170,1668,-1030,-575,-328,115,143,-19
2,106801,187,170,1668,-1030,-575,-328,115,143,-19
2,106806,183,168,1675,-1027,-579,-329,115,143,-19
2,106812,183,168,1675,-1027,-579,-329,115,143,-19
2,106817,183,168,1675,-1027,-579,-329,115,143,-19
2,106823,189,169,1675,-1029,-578,-325,115,143,-19
2,106829,189,169,1675,-1029,-578,-325,115,143,-19
2,106835,189,169,1675,-1029,-578,-325,115,143,-19
2,106841,187,169,1671,-1032,-581,-327,115,143,-19
2,106847,187,169,1671,-1032,-581,-327,115,143,-19
2,106853,187,169,1671,-1032,-581,-327,115,143,-19
2,106859,187,169,1671,-1032,-581,-327,115,143,-19
2,106865,186,169,1675,-1031,-581,-335,122,154,-28
2,106871,186,169,1675,-1031,-581,-335,122,154,-28
2,106875,186,169,1675,-1031,-581,-335,122,154,-28
2,106883,186,168,1674,-1033,-576,-330,122,154,-28
2,106888,186,168,1674,-1033,-576,-330,122,154,-28
2,106893,186,168,1674,-1033,-576,-330,122,154,-28
2,106898,186,168,1674,-1033,-576,-330,122,154,-28
2,106902,185,168,1674,-1034,-577,-330,122,154,-28
2,106908,185,168,1674,-1034,-577,-330,122,154,-28
2,106913,185,168,1674,-1034,-577,-330,122,154,-28
2,106918,185,168,1674,-1034,-577,-330,122,154,-28
2,106925,186,165,1675,-1030,-573,-328,122,154,-28
2,106930,186,165,1675,-1030,-573,-328,122,154,-28
2,106935,186,165,1675,-1030,-573,-328,122,154,-28
2,106940,186,165,1675,-1030,-573,-328,122,154,-28
2,106946,185,165,1675,-1020,-575,-332,122,154,-28
2,106951,185,165,1675,-1020,-575,-332,122,154,-28
2,106957,185,165,1675,-1020,-575,-332,122,154,-28
2,106963,186,169,1681,-1029,-570,-333,122,154,-28
2,106970,186,169,1681,-1029,-570,-333,122,154,-28
2,106976,186,169,1681,-1029,-570,-333,122,154,-28
2,106981,184,168,1676,-1031,-578,-323,122,154,-28
2,106987,184,168,1676,-1031,-578,-323,122,154,-28
2,106992,184,168,1676,-1031,-578,-323,122,154,-28
2,106998,184,168,1676,-1031,-578,-323,122,154,-28
2,107004,184,171,1678,-1032,-579,-327,114,150,-18
2,107010,184,171,1678,-1032,-579,-327,114,150,-18
2,107015,184,171,1678,-1032,-579,-327,114,150,-18
2,107020,184,171,1678,-1032,-579,-327,114,150,-18
2,107026,184,165,1672,-1029,-574,-312,114,150,-18
2,107031,184,165,1672,-1029,-574,-312,114,150,-18
2,107037,184,165,1672,-1029,-574,-312,114,150,-18
2,107043,183,170,1674,-1030,-574,-329,114,150,-18
2,107049,183,170,1674,-1030,-574,-329,114,150,-18
2,107056,183,170,1674,-1030,-574,-329,114,150,-18
2,107061,186,171,1675,-1023,-579,-330,114,150,-18
2,107067,186,171,1675,-1023,-579,-330,114,150,-18
2,107072,186,171,1675,-1023,-579,-330,114,150,-18
2,107078,186,171,1675,-1023,-579,-330,114,150,-18
2,107083,188,168,1673,-1025,-569,-326,114,150,-18
2,107088,188,168,1673,-1025,-569,-326,114,150,-18
2,107095,188,168,1673,-1025,-569,-326,114,150,-18
2,107100,188,168,1673,-1025,-569,-326,114,150,-18
2,107106,189,167,1673,-1027,-572,-326,114,150,-18
2,107111,189,167,1673,-1027,-572,-326,114,150,-18
2,107117,189,167,1673,-1027,-572,-326,114,150,-18
2,107122,183,171,1674,-1025,-574,-326,119,151,-15
2,107127,183,171,1674,-1025,-574,-326,119,151,-15
2,107133,183,171,1674,-1025,-574,-326,119,151,-15
2,107140,183,171,1674,-1025,-574,-326,119,151,-15
2,107145,186,169,1676,-1019,-570,-325,119,151,-15
2,107150,186,169,1676,-1019,-570,-325,119,151,-15
2,107156,186,169,1676,-1019,-570,-325,119,151,-15
2,107161,186,167,1674,-1024,-570,-324,119,151,-15
2,107167,186,167,1674,-1024,-570,-324,119,151,-15
2,107172,186,167,1674,-1024,-570,-324,119,151,-15
2,107179,186,167,1674,-1024,-570,-324,119,151,-15
2,107184,186,167,1677,-1024,-569,-323,119,151,-15
2,107190,186,167,1677,-1024,-569,-323,119,151,-15
2,107195,186,167,1677,-1024,-569,-323,119,151,-15
2,107201,186,167,1677,-1024,-569,-323,119,151,-15
2,107207,186,169,1675,-1029,-569,-332,119,151,-15
2,107213,186,169,1675,-1029,-569,-332,119,151,-15
2,107218,186,169,1675,-1029,-569,-332,119,151,-15
2,107224,187,164,1677,-1026,-568,-337,119,151,-15
2,107229,187,164,1677,-1026,-568,-337,119,151,-15
2,107234,187,164,1677,-1026,-568,-337,119,151,-15
2,107240,187,164,1677,-1026,-568,-337,119,151,-15
2,107246,184,168,1673,-1025,-567,-332,119,151,-15
2,107251,184,168,1673,-1025,-567,-332,119,151,-15
2,107257,184,168,1673,-1025,-567,-332,119,151,-15
2,107265,187,167,1679,-1027,-575,-333,115,153,-29
2,107270,187,167,1679,-1027,-575,-333,115,153,-29
2,107276,187,167,1679,-1027,-575,-333,115,153,-29
2,107282,187,170,1675,-1024,-575,-334,115,153,-29
2,107287,187,170,1675,-1024,-575,-334,115,153,-29
2,107293,187,170,1675,-1024,-575,-334,115,153,-29
2,107298,187,170,1675,-1024,-575,-334,115,153,-29
2,107303,185,169,1681,-1025,-570,-329,115,153,-29
2,107311,185,169,1681,-1025,-570,-329,115,153,-29
2,107316,185,169,1681,-1025,-570,-329,115,153,-29
2,107324,185,167,1678,-1032,-578,-326,115,153,-29
2,107330,185,167,1678,-1032,-578,-326,115,153,-29
2,107336,185,167,1678,-1032,-578,-326,115,153,-29
2,107342,189,167,1672,-1023,-573,-327,115,153,-29
2,107350,189,167,1672,-1023,-573,-327,115,153,-29
2,107356,189,167,1672,-1023,-573,-327,115,153,-29
2,107360,189,167,1672,-1023,-573,-327,115,153,-29
2,107367,183,169,1675,-1025,-570,-327,115,153,-29
2,107372,183,169,1675,-1025,-570,-327,115,153,-29
2,107378,183,169,1675,-1025,-570,-327,115,153,-29
2,107383,181,167,1676,-1013,-574,-321,116,154,-18
2,107389,181,167,1676,-1013,-574,-321,116,154,-18
2,107394,181,167,1676,-1013,-574,-321,116,154,-18
2,107401,181,167,1676,-1013,-574,-321,116,154,-18
2,107409,187,169,1670,-1022,-576,-317,116,154,-18
2,107413,187,169,1670,-1022,-576,-317,116,154,-18
2,107418,187,169,1670,-1022,-576,-317,116,154,-18
2,107423,186,172,1674,-1027,-574,-329,116,154,-18
2,107428,186,172,1674,-1027,-574,-329,116,154,-18
2,107433,186,172,1674,-1027,-574,-329,116,154,-18
2,107438,186,172,1674,-1027,-574,-329,116,154,-18
2,107444,186,169,1672,-1027,-573,-324,116,154,-18
2,107449,186,169,1672,-1027,-573,-324,116,154,-18
2,107454,186,169,1672,-1027,-573,-324,116,154,-18
2,107459,186,169,1672,-1027,-573,-324,116,154,-18
2,107465,186,171,1672,-1027,-580,-320,116,154,-18
2,107470,186,171,1672,-1027,-580,-320,116,154,-18
2,107475,186,171,1672,-1027,-580,-320,116,154,-18
2,107482,186,171,1672,-1027,-580,-320,116,154,-18
2,107487,186,167,1672,-1023,-578,-326,116,154,-18
2,107493,186,167,1672,-1023,-578,-326,116,154,-18
2,107499,186,167,1672,-1023,-578,-326,116,154,-18
2,107504,188,167,1675,-1031,-577,-324,116,150,-22
2,107510,188,167,1675,-1031,-577,-324,116,150,-22
2,107516,188,167,1675,-1031,-577,-324,116,150,-22
2,107523,186,164,1674,-1034,-584,-322,116,150,-22
2,107528,186,164,1674,-1034,-584,-322,116,150,-22
2,107535,186,164,1674,-1034,-584,-322,116,150,-22
2,107540,186,164,1674,-1034,-584,-322,116,150,-22
2,107546,182,167,1673,-1027,-582,-321,116,150,-22
2,107551,182,167,1673,-1027,-582,-321,116,150,-22
2,107557,182,167,1673,-1027,-582,-321,116,150,-22
2,107564,186,167,1681,-1024,-576,-327,116,150,-22
2,107570,186,167,1681,-1024,-576,-327,116,150,-22
2,107576,186,167,1681,-1024,-576,-327,116,150,-22
2,107581,186,167,1681,-1024,-576,-327,116,150,-22
2,107587,185,169,1681,-1021,-576,-332,116,150,-22
2,107592,185,169,1681,-1021,-576,-332,116,150,-22
2,107598,185,169,1681,-1021,-576,-332,116,150,-22
2,107604,187,167,1673,-1021,-577,-328,116,150,-22
2,107610,187,167,1673,-1021,-577,-328,116,150,-22
2,107615,187,167,1673,-1021,-577,-328,116,150,-22
2,107620,187,167,1673,-1021,-577,-328,116,150,-22
2,107625,187,170,1674,-1030,-578,-327,116,150,-22
2,107631,187,170,1674,-1030,-578,-327,116,150,-22
2,107636,187,170,1674,-1030,-578,-327,116,150,-22
2,107642,185,168,1674,-1029,-575,-327,116,150,-22
2,107648,185,168,1674,-1029,-575,-327,128,156,-20
2,107654,185,168,1674,-1029,-575,-327,128,156,-20
2,107659,185,168,1674,-1029,-575,-327,128,156,-20
2,107664,186,168,1672,-1025,-572,-328,128,156,-20
2,107669,186,168,1672,-1025,-572,-328,128,156,-20
2,107676,186,168,1672,-1025,-572,-328,128,156,-20
2,107682,187,167,1669,-1029,-572,-325,128,156,-20
2,107688,187,167,1669,-1029,-572,-325,128,156,-20
2,107694,187,167,1669,-1029,-572,-325,128,156,-20
2,107699,187,167,1669,-1029,-572,-325,128,156,-20
2,107705,188,168,1677,-1025,-574,-324,128,156,-20
2,107710,188,168,1677,-1025,-574,-324,128,156,-20
2,107716,188,168,1677,-1025,-574,-324,128,156,-20
2,107722,187,170,1676,-1026,-572,-324,128,156,-20
2,107727,187,170,1676,-1026,-572,-324,128,156,-20
2,107732,187,170,1676,-1026,-572,-324,128,156,-20
2,107737,187,170,1676,-1026,-572,-324,128,156,-20
2,107743,188,168,1668,-1030,-575,-326,128,156,-20
2,107748,188,168,1668,-1030,-575,-326,128,156,-20
2,107752,188,168,1668,-1030,-575,-326,128,156,-20
2,107757,188,168,1668,-1030,-575,-326,128,156,-20
2,107762,185,166,1676,-1032,-575,-326,118,148,-20
2,107767,185,166,1676,-1032,-575,-326,118,148,-20
2,107772,185,166,1676,-1032,-575,-326,118,148,-20
2,107779,185,166,1676,-1032,-575,-326,118,148,-20
2,107783,188,166,1678,-1029,-576,-334,118,148,-20
2,107789,188,166,1678,-1029,-576,-334,118,148,-20
2,107794,188,166,1678,-1029,-576,-334,118,148,-20
2,107800,188,166,1678,-1029,-576,-334,118,148,-20
2,107805,184,165,1671,-1027,-577,-329,118,148,-20
2,107811,184,165,1671,-1027,-577,-329,118,148,-20
2,107817,184,165,1671,-1027,-577,-329,118,148,-20
2,107823,188,165,1670,-1030,-576,-325,118,148,-20
2,107829,188,165,1670,-1030,-576,-325,118,148,-20
2,107834,188,165,1670,-1030,-576,-325,118,148,-20
2,107840,188,165,1670,-1030,-576,-325,118,148,-20
2,107846,184,168,1670,-1029,-572,-330,118,148,-20
2,107853,184,168,1670,-1029,-572,-330,118,148,-20
2,107859,184,168,1670,-1029,-572,-330,118,148,-20
2,107865,187,163,1669,-1023,-569,-329,118,148,-20
2,107870,187,163,1669,-1023,-569,-329,118,148,-20
2,107875,187,163,1669,-1023,-569,-329,118,148,-20
2,107881,187,163,1669,-1023,-569,-329,118,148,-20
2,107888,187,168,1671,-1023,-573,-330,118,148,-20
2,107895,187,168,1671,-1023,-573,-330,118,148,-20
2,107902,185,169,1676,-1029,-570,-326,118,148,-20
2,107909,185,169,1676,-1029,-570,-326,119,149,-17
2,107914,185,169,1676,-1029,-570,-326,119,149,-17
2,107920,185,169,1676,-1029,-570,-326,119,149,-17
2,107925,188,167,1674,-1029,-579,-332,119,149,-17
2,107931,188,167,1674,-1029,-579,-332,119,149,-17
2,107937,188,167,1674,-1029,-579,-332,119,149,-17
2,107942,183,168,1671,-1027,-576,-329,119,149,-17
2,107948,183,168,1671,-1027,-576,-329,119,149,-17
2,107954,183,168,1671,-1027,-576,-329,119,149,-17
2,107959,183,168,1671,-1027,-576,-329,119,149,-17
2,107964,187,164,1670,-1025,-573,-329,119,149,-17
2,107970,187,164,1670,-1025,-573,-329,119,149,-17
2,107976,187,164,1670,-1025,-573,-329,119,149,-17
2,107981,187,164,1670,-1025,-573,-329,119,149,-17
2,107987,186,166,1668,-1026,-578,-329,119,149,-17
2,107994,186,166,1668,-1026,-578,-329,119,149,-17
2,107998,186,166,1668,-1026,-578,-329,119,149,-17
2,108004,184,166,1672,-1027,-576,-338,119,149,-17
2,108009,184,166,1672,-1027,-576,-338,119,149,-17
2,108015,184,166,1672,-1027,-576,-338,119,149,-17
2,108021,184,166,1672,-1027,-576,-338,119,149,-17
2,108027,184,170,1678,-1025,-572,-331,122,150,-20
2,108033,184,170,1678,-1025,-572,-331,122,150,-20
2,108039,184,170,1678,-1025,-572,-331,122,150,-20
2,108045,184,170,1678,-1025,-572,-331,122,150,-20
2,108051,184,170,1678,-1025,-572,-331,122,150,-20
2,108056,184,170,1678,-1025,-572,-331,122,150,-20
2,108061,184,170,1678,-1025,-572,-331,122,150,-20
2,108068,187,164,1676,-1027,-574,-331,122,150,-20
2,108075,187,164,1676,-1027,-574,-331,122,150,-20
2,108081,187,164,1676,-1027,-574,-331,122,150,-20
2,108086,186,167,1679,-1023,-580,-321,122,150,-20
2,108092,186,167,1679,-1023,-580,-321,122,150,-20
2,108097,186,167,1679,-1023,-580,-321,122,150,-20
2,108103,187,166,1675,-1021,-580,-319,122,150,-20
2,108109,187,166,1675,-1021,-580,-319,122,150,-20
2,108114,187,166,1675,-1021,-580,-319,122,150,-20
2,108121,187,166,1675,-1021,-580,-319,122,150,-20
2,108126,186,164,1670,-1029,-578,-326,122,150,-20
2,108131,186,164,1670,-1029,-578,-326,122,150,-20
2,108137,186,164,1670,-1029,-578,-326,122,150,-20
2,108142,186,164,1670,-1029,-578,-326,122,150,-20
2,108147,189,168,1677,-1016,-576,-329,125,147,-27
2,108153,189,168,1677,-1016,-576,-329,125,147,-27
2,108160,189,168,1677,-1016,-576,-329,125,147,-27
2,108165,185,168,1675,-1026,-581,-338,125,147,-27
2,108171,185,168,1675,-1026,-581,-338,125,147,-27
2,108176,185,168,1675,-1026,-581,-338,125,147,-27
2,108181,185,168,1675,-1026,-581,-338,125,147,-27
2,108186,188,168,1676,-1022,-572,-329,125,147,-27
2,108192,188,168,1676,-1022,-572,-329,125,147,-27
2,108197,188,168,1676,-1022,-572,-329,125,147,-27
2,108204,184,169,1677,-1018,-572,-324,125,147,-27
2,108209,184,169,1677,-1018,-572,-324,125,147,-27
2,108215,184,169,1677,-1018,-572,-324,125,147,-27
2,108220,184,169,1677,-1018,-572,-324,125,147,-27
2,108225,185,170,1672,-1025,-573,-326,125,147,-27
2,108231,185,170,1672,-1025,-573,-326,125,147,-27
2,108236,185,170,1672,-1025,-573,-326,125,147,-27
2,108242,185,170,1672,-1025,-573,-326,125,147,-27
2,108248,183,168,1670,-1024,-578,-326,125,147,-27
2,108253,183,168,1670,-1024,-578,-326,125,147,-27
2,108259,183,168,1670,-1024,-578,-326,125,147,-27
2,108264,188,170,1676,-1020,-575,-327,125,147,-27
2,108269,188,170,1676,-1020,-575,-327,125,147,-27
2,108274,188,170,1676,-1020,-575,-327,125,147,-27
2,108280,188,170,1676,-1020,-575,-327,125,147,-27
2,108285,186,169,1679,-1025,-571,-326,116,150,-20
2,108292,186,169,1679,-1025,-571,-326,116,150,-20
2,108297,186,169,1679,-1025,-571,-326,116,150,-20
2,108304,186,169,1678,-1027,-575,-326,116,150,-20
2,108309,186,169,1678,-1027,-575,-326,116,150,-20
2,108315,186,169,1678,-1027,-575,-326,116,150,-20
2,108320,186,169,1678,-1027,-575,-326,116,150,-20
2,108326,186,169,1678,-1027,-575,-326,116,150,-20
2,108332,186,169,1678,-1027,-575,-326,116,150,-20
2,108338,186,169,1678,-1027,-575,-326,116,150,-20
2,108343,185,167,1675,-1027,-572,-329,116,150,-20
2,108349,185,167,1675,-1027,-572,-329,116,150,-20
2,108354,185,167,1675,-1027,-572,-329,116,150,-20
2,108360,185,167,1675,-1027,-572,-329,116,150,-20
2,108366,185,166,1673,-1027,-577,-332,116,150,-20
2,108374,185,166,1673,-1027,-577,-332,116,150,-20
2,108379,185,166,1673,-1027,-577,-332,116,150,-20
2,108384,189,168,1670,-1039,-592,-328,116,150,-20
2,108390,189,168,1670,-1039,-592,-328,116,150,-20
2,108396,189,168,1670,-1039,-592,-328,116,150,-20
2,108401,189,168,1670,-1039,-592,-328,116,150,-20
2,108407,188,171,1680,-1030,-577,-323,121,147,-19
2,108412,188,171,1680,-1030,-577,-323,121,147,-19
2,108419,188,171,1680,-1030,-577,-323,121,147,-19
2,108424,185,167,1677,-1032,-578,-331,121,147,-19
2,108430,185,167,1677,-1032,-578,-331,121,147,-19
2,108436,185,167,1677,-1032,-578,-331,121,147,-19
2,108442,185,167,1677,-1032,-578,-331,121,147,-19
2,108447,187,169,1673,-1024,-576,-330,121,147,-19
2,108453,187,169,1673,-1024,-576,-330,121,147,-19
2,108459,187,169,1673,-1024,-576,-330,121,147,-19
2,108464,186,168,1681,-1027,-577,-330,121,147,-19
2,108470,186,168,1681,-1027,-577,-330,121,147,-19
2,108476,186,168,1681,-1027,-577,-330,121,147,-19
2,108483,186,168,1681,-1027,-577,-330,121,147,-19
2,108489,184,169,1672,-1033,-576,-326,121,147,-19
2,108494,184,169,1672,-1033,-576,-326,121,147,-19
2,108500,184,169,1672,-1033,-576,-326,121,147,-19
2,108506,185,167,1676,-1029,-575,-327,121,147,-19
2,108511,185,167,1676,-1029,-575,-327,121,147,-19
2,108516,185,167,1676,-1029,-575,-327,121,147,-19
2,108520,185,167,1676,-1029,-575,-327,121,147,-19
2,108525,185,167,1676,-1029,-575,-327,121,147,-19
2,108530,185,167,1676,-1029,-575,-327,121,147,-19
2,108535,185,167,1676,-1029,-575,-327,121,147,-19
2,108540,185,167,1676,-1029,-575,-327,121,147,-19
2,108546,188,169,1671,-1029,-579,-333,115,149,-21
2,108551,188,169,1671,-1029,-579,-333,115,149,-21
2,108556,188,169,1671,-1029,-579,-333,115,149,-21
2,108561,188,169,1671,-1029,-579,-333,115,149,-21
2,108566,190,167,1678,-1026,-577,-332,115,149,-21
2,108570,190,167,1678,-1026,-577,-332,115,149,-21
2,108575,190,167,1678,-1026,-577,-332,115,149,-21
2,108580,190,167,1678,-1026,-577,-332,115,149,-21
2,108587,185,167,1672,-1024,-574,-326,115,149,-21
2,108592,185,167,1672,-1024,-574,-326,115,149,-21
2,108600,185,167,1672,-1024,-574,-326,115,149,-21
2,108605,187,166,1673,-1023,-570,-320,115,149,-21
2,108611,187,166,1673,-1023,-570,-320,115,149,-21
2,108616,187,166,1673,-1023,-570,-320,115,149,-21
2,108621,187,166,1673,-1023,-570,-320,115,149,-21
2,108627,185,169,1671,-1025,-569,-321,115,149,-21
2,108633,185,169,1671,-1025,-569,-321,115,149,-21
2,108639,185,169,1671,-1025,-569,-321,115,149,-21
2,108645,185,166,1674,-1024,-574,-320,115,149,-21
2,108650,185,166,1674,-1024,-574,-320,115,149,-21
2,108656,185,166,1674,-1024,-574,-320,115,149,-21
2,108661,185,166,1674,-1024,-574,-320,115,149,-21
2,108667,185,168,1683,-1030,-573,-320,115,147,-13
2,108674,185,168,1683,-1030,-573,-320,115,147,-13
2,108679,185,168,1683,-1030,-573,-320,115,147,-13
2,108685,185,167,1680,-1027,-578,-328,115,147,-13
2,108691,185,167,1680,-1027,-578,-328,115,147,-13
2,108697,185,167,1680,-1027,-578,-328,115,147,-13
2,108702,185,167,1680,-1027,-578,-328,115,147,-13
2,108707,186,171,1676,-1021,-575,-318,115,147,-13
2,108712,186,171,1676,-1021,-575,-318,115,147,-13
2,108719,186,171,1676,-1021,-575,-318,115,147,-13
2,108724,186,171,1676,-1021,-575,-318,115,147,-13
2,108730,186,171,1676,-1021,-575,-318,115,147,-13
2,108735,186,171,1676,-1021,-575,-318,115,147,-13
2,108740,186,171,1676,-1021,-575,-318,115,147,-13
2,108746,184,165,1668,-1020,-571,-332,115,147,-13
2,108751,184,165,1668,-1020,-571,-332,115,147,-13
2,108758,184,165,1668,-1020,-571,-332,115,147,-13
2,108762,184,165,1668,-1020,-571,-332,115,147,-13
2,108768,187,165,1676,-1025,-580,-331,115,147,-13
2,108773,187,165,1676,-1025,-580,-331,115,147,-13
2,108779,187,165,1676,-1025,-580,-331,115,147,-13
2,108784,186,165,1670,-1020,-578,-332,121,149,-21
2,108790,186,165,1670,-1020,-578,-332,121,149,-21
2,108796,186,165,1670,-1020,-578,-332,121,149,-21
2,108802,186,165,1670,-1020,-578,-332,121,149,-21
2,108808,187,166,1682,-1022,-575,-332,121,149,-21
2,108813,187,166,1682,-1022,-575,-332,121,149,-21
2,108818,187,166,1682,-1022,-575,-332,121,149,-21
2,108825,186,167,1674,-1025,-575,-329,121,149,-21
2,108831,186,167,1674,-1025,-575,-329,121,149,-21
2,108837,186,167,1674,-1025,-575,-329,121,149,-21
2,108843,186,167,1674,-1025,-575,-329,121,149,-21
2,108848,185,167,1672,-1033,-580,-320,121,149,-21
2,108854,185,167,1672,-1033,-580,-320,121,149,-21
2,108859,185,167,1672,-1033,-580,-320,121,149,-21
2,108864,186,168,1673,-1025,-575,-324,121,149,-21
2,108870,186,168,1673,-1025,-575,-324,121,149,-21
2,108875,186,168,1673,-1025,-575,-324,121,149,-21
2,108882,186,168,1673,-1025,-575,-324,121,149,-21
2,108887,186,166,1665,-1028,-574,-325,121,149,-21
2,108893,186,166,1665,-1028,-574,-325,121,149,-21
2,108898,186,166,1665,-1028,-574,-325,121,149,-21
2,108904,186,167,1667,-1023,-575,-333,121,149,-21
2,108910,186,167,1667,-1023,-575,-333,121,149,-21
2,108916,186,167,1667,-1023,-575,-333,121,149,-21
2,108923,186,167,1667,-1023,-575,-333,121,149,-21
2,108929,183,164,1682,-1015,-574,-333,122,154,-18
2,108934,183,164,1682,-1015,-574,-333,122,154,-18
2,108940,183,164,1682,-1015,-574,-333,122,154,-18
2,108945,185,166,1674,-1022,-575,-325,122,154,-18
2,108950,185,166,1674,-1022,-575,-325,122,154,-18
2,108956,185,166,1674,-1022,-575,-325,122,154,-18
2,108962,185,166,1674,-1022,-575,-325,122,154,-18
2,108968,186,171,1668,-1027,-577,-332,122,154,-18
2,108975,186,171,1668,-1027,-577,-332,122,154,-18
2,108981,186,171,1668,-1027,-577,-332,122,154,-18
2,108986,187,169,1669,-1030,-578,-327,122,154,-18
2,108992,187,169,1669,-1030,-578,-327,122,154,-18
2,108997,187,169,1669,-1030,-578,-327,122,154,-18
2,109003,187,169,1669,-1030,-578,-327,122,154,-18
2,109008,187,169,1675,-1018,-578,-332,122,154,-18
2,109014,187,169,1675,-1018,-578,-332,122,154,-18
2,109021,187,169,1675,-1018,-578,-332,122,154,-18
2,109027,187,169,1675,-1021,-571,-325,122,154,-18
2,109033,187,169,1675,-1021,-571,-325,122,154,-18
2,109039,187,169,1675,-1021,-571,-325,122,154,-18
2,109046,186,165,1674,-1024,-572,-320,116,150,-12
2,109052,186,165,1674,-1024,-572,-320,116,150,-12
2,109059,186,165,1674,-1024,-572,-320,116,150,-12
2,109065,184,167,1673,-1022,-578,-324,116,150,-12
2,109071,184,167,1673,-1022,-578,-324,116,150,-12
2,109078,184,167,1673,-1022,-578,-324,116,150,-12
2,109084,184,167,1673,-1022,-576,-324,116,150,-12
2,109091,184,167,1673,-1022,-576,-324,116,150,-12
2,109097,184,167,1673,-1022,-576,-324,116,150,-12
2,109103,184,167,1673,-1022,-576,-324,116,150,-12
2,109109,185,168,1673,-1014,-575,-329,116,150,-12
2,109114,185,168,1673,-1014,-575,-329,116,150,-12
2,109120,185,168,1673,-1014,-575,-329,116,150,-12
2,109126,187,167,1670,-1017,-576,-325,116,150,-12
2,109132,187,167,1670,-1017,-576,-325,116,150,-12
2,109138,187,167,1670,-1017,-576,-325,116,150,-12
2,109145,188,167,1671,-1022,-579,-324,116,150,-12
2,109151,188,167,1671,-1022,-579,-324,116,150,-12
2,109157,188,167,1671,-1022,-579,-324,116,150,-12
2,109162,188,167,1671,-1022,-579,-324,116,150,-12
2,109168,184,169,1677,-1023,-575,-324,116,150,-12
2,109173,184,169,1677,-1023,-575,-324,116,150,-12
2,109178,184,169,1677,-1023,-575,-324,116,150,-12
2,109184,186,166,1675,-1036,-578,-336,116,150,-12
2,109190,186,166,1675,-1036,-578,-336,121,141,-29
2,109196,186,166,1675,-1036,-578,-336,121,141,-29
2,109201,186,166,1675,-1036,-578,-336,121,141,-29
2,109207,186,170,1674,-1027,-583,-325,121,141,-29
2,109212,186,170,1674,-1027,-583,-325,121,141,-29
2,109218,186,170,1674,-1027,-583,-325,121,141,-29
2,109224,185,168,1673,-1039,-573,-326,121,141,-29
2,109230,185,168,1673,-1039,-573,-326,121,141,-29
2,109236,185,168,1673,-1039,-573,-326,121,141,-29
2,109241,185,168,1673,-1039,-573,-326,121,141,-29
2,109247,187,170,1674,-1040,-574,-321,121,141,-29
2,109253,187,170,1674,-1040,-574,-321,121,141,-29
2,109259,187,170,1674,-1040,-574,-321,121,141,-29
2,109265,186,167,1673,-1030,-570,-326,121,141,-29
2,109273,186,167,1673,-1030,-570,-326,121,141,-29
2,109279,186,167,1673,-1030,-570,-326,121,141,-29
2,109284,186,167,1673,-1030,-570,-326,121,141,-29
2,109290,185,169,1677,-1041,-582,-324,121,141,-29
2,109295,185,169,1677,-1041,-582,-324,121,141,-29
2,109301,185,169,1677,-1041,-582,-324,121,141,-29
2,109307,187,168,1678,-1033,-579,-321,112,158,-22
2,109313,187,168,1678,-1033,-579,-321,112,158,-22
2,109319,187,168,1678,-1033,-579,-321,112,158,-22
2,109324,185,165,1674,-1023,-575,-322,112,158,-22
2,109331,185,165,1674,-1023,-575,-322,112,158,-22
2,109337,185,165,1674,-1023,-575,-322,112,158,-22
2,109342,185,165,1674,-1023,-575,-322,112,158,-22
2,109347,187,167,1674,-1033,-578,-327,112,158,-22
2,109353,187,167,1674,-1033,-578,-327,112,158,-22
2,109359,187,167,1674,-1033,-578,-327,112,158,-22
2,109364,187,165,1671,-1035,-572,-325,112,158,-22
2,109370,187,165,1671,-1035,-572,-325,112,158,-22
2,109375,187,165,1671,-1035,-572,-325,112,158,-22
2,109380,187,165,1671,-1035,-572,-325,112,158,-22
2,109386,187,167,1672,-1023,-575,-333,112,158,-22
2,109392,187,167,1672,-1023,-575,-333,112,158,-22
2,109398,187,167,1672,-1023,-575,-333,112,158,-22
2,109404,187,167,1672,-1023,-575,-333,112,158,-22
2,109409,188,169,1677,-1021,-579,-331,112,158,-22
2,109415,188,169,1677,-1021,-579,-331,112,158,-22
2,109420,188,169,1677,-1021,-579,-331,112,158,-22
2,109426,186,169,1672,-1027,-574,-331,112,144,-24
2,109432,186,169,1672,-1027,-574,-331,112,144,-24
2,109437,186,169,1672,-1027,-574,-331,112,144,-24
2,109444,186,169,1672,-1027,-574,-331,112,144,-24
2,109449,183,168,1676,-1030,-573,-325,112,144,-24
2,109455,183,168,1676,-1030,-573,-325,112,144,-24
2,109461,183,168,1676,-1030,-573,-325,112,144,-24
2,109466,183,170,1671,-1026,-574,-326,112,144,-24
2,109472,183,170,1671,-1026,-574,-326,112,144,-24
2,109478,183,170,1671,-1026,-574,-326,112,144,-24
2,109485,184,164,1677,-1026,-573,-322,112,144,-24
2,109491,184,164,1677,-1026,-573,-322,112,144,-24
2,109496,184,164,1677,-1026,-573,-322,112,144,-24
2,109501,184,164,1677,-1026,-573,-322,112,144,-24
2,109507,184,166,1674,-1028,-571,-318,112,144,-24
2,109512,184,166,1674,-1028,-571,-318,112,144,-24
2,109517,184,166,1674,-1028,-571,-318,112,144,-24
2,109522,184,166,1674,-1028,-571,-318,112,144,-24
2,109528,182,167,1678,-1029,-568,-329,112,144,-24
2,109533,182,167,1678,-1029,-568,-329,112,144,-24
2,109537,182,167,1678,-1029,-568,-329,112,144,-24
2,109543,182,167,1678,-1029,-568,-329,112,144,-24
2,109548,185,169,1673,-1022,-573,-329,112,144,-24
2,109553,185,169,1673,-1022,-573,-329,112,144,-24
2,109558,185,169,1673,-1022,-573,-329,112,144,-24
2,109564,185,169,1673,-1022,-573,-329,112,144,-24
2,109571,185,167,1680,-1018,-573,-335,121,151,-19
2,109576,185,167,1680,-1018,-573,-335,121,151,-19
2,109582,185,167,1680,-1018,-573,-335,121,151,-19
2,109587,188,165,1674,-1023,-577,-330,121,151,-19
2,109594,188,165,1674,-1023,-577,-330,121,151,-19
2,109600,188,165,1674,-1023,-577,-330,121,151,-19
2,109605,183,165,1673,-1012,-576,-330,121,151,-19
2,109612,183,165,1673,-1012,-576,-330,121,151,-19
2,109617,183,165,1673,-1012,-576,-330,121,151,-19
2,109622,183,165,1673,-1012,-576,-330,121,151,-19
2,109627,187,168,1669,-1023,-577,-327,121,151,-19
2,109633,187,168,1669,-1023,-577,-327,121,151,-19
2,109638,187,168,1669,-1023,-577,-327,121,151,-19
2,109643,187,168,1669,-1023,-577,-327,121,151,-19
2,109648,189,168,1672,-1025,-580,-327,121,151,-19
2,109655,189,168,1672,-1025,-580,-327,121,151,-19
2,109660,189,168,1672,-1025,-580,-327,121,151,-19
2,109665,187,169,1671,-1020,-576,-327,121,151,-19
2,109671,187,169,1671,-1020,-576,-327,121,151,-19
2,109677,187,169,1671,-1020,-576,-327,121,151,-19
2,109682,187,169,1671,-1020,-576,-327,121,151,-19
2,109688,186,170,1675,-1021,-577,-321,118,146,-14
2,109693,186,170,1675,-1021,-577,-321,118,146,-14
2,109700,186,170,1675,-1021,-577,-321,118,146,-14
2,109706,184,168,1676,-1027,-581,-325,118,146,-14
2,109711,184,168,1676,-1027,-581,-325,118,146,-14
2,109717,184,168,1676,-1027,-581,-325,118,146,-14
2,109722,184,168,1676,-1027,-581,-325,118,146,-14
2,109727,185,166,1674,-1023,-574,-333,118,146,-14
2,109733,185,166,1674,-1023,-574,-333,118,146,-14
2,109739,185,166,1674,-1023,-574,-333,118,146,-14
2,109745,185,166,1674,-1023,-574,-333,118,146,-14
2,109750,185,168,1673,-1024,-575,-328,118,146,-14
2,109756,185,168,1673,-1024,-575,-328,118,146,-14
2,109761,185,168,1673,-1024,-575,-328,118,146,-14
2,109766,184,169,1677,-1027,-573,-321,118,146,-14
2,109771,184,169,1677,-1027,-573,-321,118,146,-14
2,109778,184,169,1677,-1027,-573,-321,118,146,-14
2,109784,184,169,1677,-1027,-573,-321,118,146,-14
2,109790,186,165,1674,-1027,-571,-322,118,146,-14
2,109796,186,165,1674,-1027,-571,-322,118,146,-14
2,109802,186,165,1674,-1027,-571,-322,118,146,-14
2,109808,186,169,1674,-1023,-576,-323,118,146,-14
2,109813,186,169,1674,-1023,-576,-323,118,146,-14
2,109819,186,169,1674,-1023,-576,-323,118,146,-14
2,109825,186,169,1674,-1023,-576,-323,118,146,-14
2,109830,185,165,1686,-1025,-580,-325,124,154,-20
2,109836,185,165,1686,-1025,-580,-325,124,154,-20
2,109842,185,165,1686,-1025,-580,-325,124,154,-20
2,109848,188,169,1676,-1016,-572,-326,124,154,-20
2,109853,188,169,1676,-1016,-572,-326,124,154,-20
2,109858,188,169,1676,-1016,-572,-326,124,154,-20
2,109863,188,169,1676,-1016,-572,-326,124,154,-20
2,109870,187,169,1673,-1026,-569,-330,124,154,-20
2,109875,187,169,1673,-1026,-569,-330,124,154,-20
2,109880,187,169,1673,-1026,-569,-330,124,154,-20
2,109886,187,165,1674,-1029,-578,-327,124,154,-20
2,109891,187,165,1674,-1029,-578,-327,124,154,-20
2,109896,187,165,1674,-1029,-578,-327,124,154,-20
2,109901,187,165,1674,-1029,-578,-327,124,154,-20
2,109907,185,168,1677,-1025,-581,-326,124,154,-20
2,109913,185,168,1677,-1025,-581,-326,124,154,-20
2,109919,185,168,1677,-1025,-581,-326,124,154,-20
2,109924,185,168,1677,-1025,-581,-326,124,154,-20
2,109929,187,166,1672,-1026,-578,-327,124,154,-20
2,109935,187,166,1672,-1026,-578,-327,124,154,-20
2,109940,187,166,1672,-1026,-578,-327,124,154,-20
2,109945,187,167,1681,-1025,-572,-325,122,146,-18
2,109952,187,167,1681,-1025,-572,-325,122,146,-18
2,109958,187,167,1681,-1025,-572,-325,122,146,-18
2,109963,187,167,1681,-1025,-572,-325,122,146,-18
2,109968,184,171,1673,-1029,-577,-331,122,146,-18
2,109973,184,171,1673,-1029,-577,-331,122,146,-18
2,109979,184,171,1673,-1029,-577,-331,122,146,-18
2,109984,184,171,1673,-1029,-577,-331,122,146,-18
2,109989,185,165,1673,-1026,-576,-331,122,146,-18
2,109996,185,165,1673,-1026,-576,-331,122,146,-18
2,110001,185,165,1673,-1026,-576,-331,122,146,-18
2,110006,188,168,1674,-1026,-571,-326,122,146,-18
2,110012,188,168,1674,-1026,-571,-326,122,146,-18
2,110017,188,168,1674,-1026,-571,-326,122,146,-18
2,110022,188,168,1674,-1026,-571,-326,122,146,-18
2,110028,189,169,1675,-1030,-574,-324,122,146,-18
2,110033,189,169,1675,-1030,-574,-324,122,146,-18
2,110039,189,169,1675,-1030,-574,-324,122,146,-18
2,110044,189,169,1675,-1030,-574,-324,122,146,-18
2,110050,186,171,1673,-1025,-575,-330,122,146,-18
2,110055,186,171,1673,-1025,-575,-330,122,146,-18
2,110060,186,171,1673,-1025,-575,-330,122,146,-18
2,110065,187,167,1673,-1030,-575,-328,116,154,-18
2,110071,187,167,1673,-1030,-575,-328,116,154,-18
2,110076,187,167,1673,-1030,-575,-328,116,154,-18
2,110082,187,167,1673,-1030,-575,-328,116,154,-18
2,110088,184,167,1673,-1029,-574,-328,116,154,-18
2,110093,184,167,1673,-1029,-574,-328,116,154,-18
2,110099,184,167,1673,-1029,-574,-328,116,154,-18
2,110104,184,167,1673,-1029,-574,-328,116,154,-18
2,110110,186,169,1676,-1015,-574,-327,116,154,-18
2,110116,186,169,1676,-1015,-574,-327,116,154,-18
2,110123,186,169,1676,-1015,-574,-327,116,154,-18
2,110128,188,169,1672,-1027,-580,-335,116,154,-18
2,110134,188,169,1672,-1027,-580,-335,116,154,-18
2,110140,188,169,1672,-1027,-580,-335,116,154,-18
2,110145,188,169,1672,-1027,-580,-335,116,154,-18
2,110150,187,167,1669,-1024,-578,-330,116,154,-18
2,110156,187,167,1669,-1024,-578,-330,116,154,-18
2,110162,187,167,1669,-1024,-578,-330,116,154,-18
2,110169,184,167,1675,-1026,-575,-331,116,154,-18
2,110174,184,167,1675,-1026,-575,-331,116,154,-18
2,110179,184,167,1675,-1026,-575,-331,116,154,-18
2,110183,184,167,1675,-1026,-575,-331,116,154,-18
2,110188,187,168,1673,-1028,-574,-333,116,154,-18
2,110193,187,168,1673,-1028,-574,-333,116,154,-18
2,110199,187,168,1673,-1028,-574,-333,116,154,-18
2,110204,187,168,1673,-1028,-574,-333,116,154,-18
2,110210,183,169,1678,-1028,-577,-333,123,157,-21
2,110215,183,169,1678,-1028,-577,-333,123,157,-21
2,110219,183,169,1678,-1028,-577,-333,123,157,-21
2,110225,183,169,1678,-1028,-577,-333,123,157,-21
2,110230,186,168,1674,-1027,-576,-324,123,157,-21
2,110234,186,168,1674,-1027,-576,-324,123,157,-21
2,110240,186,168,1674,-1027,-576,-324,123,157,-21
2,110245,186,168,1671,-1026,-580,-327,123,157,-21
2,110253,186,168,1671,-1026,-580,-327,123,157,-21
2,110259,186,168,1671,-1026,-580,-327,123,157,-21
2,110266,186,168,1671,-1026,-580,-327,123,157,-21
2,110271,186,168,1671,-1026,-580,-327,123,157,-21
2,110276,186,168,1671,-1026,-580,-327,123,157,-21
2,110282,186,168,1671,-1026,-580,-327,123,157,-21
2,110287,184,165,1678,-1018,-575,-326,123,157,-21
2,110294,184,165,1678,-1018,-575,-326,123,157,-21
2,110299,184,165,1678,-1018,-575,-326,123,157,-21
2,110305,184,165,1678,-1018,-575,-326,123,157,-21
2,110310,184,170,1674,-1032,-573,-319,123,157,-21
2,110316,184,170,1674,-1032,-573,-319,123,157,-21
2,110321,184,170,1674,-1032,-573,-319,123,157,-21
2,110326,185,168,1675,-1029,-570,-323,115,155,-23
2,110332,185,168,1675,-1029,-570,-323,115,155,-23
2,110339,185,168,1675,-1029,-570,-323,115,155,-23
2,110345,185,168,1675,-1029,-570,-323,115,155,-23
2,110350,185,168,1673,-1028,-574,-323,115,155,-23
2,110356,185,168,1673,-1028,-574,-323,115,155,-23
2,110362,185,168,1673,-1028,-574,-323,115,155,-23
2,110366,184,167,1674,-1030,-574,-325,115,155,-23
2,110371,184,167,1674,-1030,-574,-325,115,155,-23
2,110376,184,167,1674,-1030,-574,-325,115,155,-23
2,110382,184,167,1674,-1030,-574,-325,115,155,-23
2,110386,185,165,1669,-1023,-580,-328,115,155,-23
2,110391,185,165,1669,-1023,-580,-328,115,155,-23
2,110396,185,165,1669,-1023,-580,-328,115,155,-23
2,110401,185,165,1669,-1023,-580,-328,115,155,-23
2,110405,185,165,1669,-1023,-580,-328,115,155,-23
2,110410,185,167,1670,-1019,-575,-320,115,155,-23
2,110415,185,167,1670,-1019,-575,-320,115,155,-23
2,110420,185,167,1670,-1019,-575,-320,115,155,-23
2,110426,185,169,1669,-1027,-578,-327,115,155,-23
2,110431,185,169,1669,-1027,-578,-327,115,155,-23
2,110436,185,169,1669,-1027,-578,-327,115,155,-23
2,110441,185,169,1669,-1027,-578,-327,115,155,-23
2,110445,185,169,1669,-1027,-578,-327,115,155,-23
2,110450,183,169,1671,-1026,-579,-321,115,155,-23
2,110455,183,169,1671,-1026,-579,-321,115,155,-23
2,110460,183,169,1671,-1026,-579,-321,115,155,-23
2,110466,183,169,1671,-1026,-579,-321,115,155,-23
2,110470,188,166,1681,-1022,-580,-321,121,139,-19
2,110475,188,166,1681,-1022,-580,-321,121,139,-19
2,110480,188,166,1681,-1022,-580,-321,121,139,-19
2,110484,188,166,1681,-1022,-580,-321,121,139,-19
2,110489,185,169,1669,-1020,-579,-326,121,139,-19
2,110494,185,169,1669,-1020,-579,-326,121,139,-19
2,110498,185,169,1669,-1020,-579,-326,121,139,-19
2,110503,185,169,1669,-1020,-579,-326,121,139,-19
2,110509,183,169,1670,-1030,-580,-326,121,139,-19
2,110513,183,169,1670,-1030,-580,-326,121,139,-19
2,110518,183,169,1670,-1030,-580,-326,121,139,-19
2,110523,183,169,1670,-1030,-580,-326,121,139,-19
2,110527,184,169,1670,-1020,-576,-325,121,139,-19
2,110532,184,169,1670,-1020,-576,-325,121,139,-19
2,110537,184,169,1670,-1020,-576,-325,121,139,-19
2,110542,184,169,1670,-1020,-576,-325,121,139,-19
2,110547,186,166,1675,-1027,-584,-318,121,139,-19
2,110553,186,166,1675,-1027,-584,-318,121,139,-19
2,110559,186,166,1675,-1027,-584,-318,121,139,-19
2,110564,186,166,1675,-1027,-584,-318,121,139,-19
2,110569,187,169,1673,-1030,-565,-329,121,139,-19
2,110574,187,169,1673,-1030,-565,-329,121,139,-19
2,110579,187,169,1673,-1030,-565,-329,121,139,-19
2,110583,187,169,1673,-1030,-565,-329,121,139,-19
2,110588,183,173,1676,-1019,-566,-323,127,153,-21
2,110594,183,173,1676,-1019,-566,-323,127,153,-21
2,110599,183,173,1676,-1019,-566,-323,127,153,-21
2,110604,183,173,1676,-1019,-566,-323,127,153,-21
2,110610,185,168,1676,-1021,-569,-326,127,153,-21
2,110616,185,168,1676,-1021,-569,-326,127,153,-21
2,110621,185,168,1676,-1021,-569,-326,127,153,-21
2,110627,184,169,1672,-1031,-567,-324,127,153,-21
2,110633,184,169,1672,-1031,-567,-324,127,153,-21
2,110640,184,169,1672,-1031,-567,-324,127,153,-21
2,110646,187,166,1679,-1028,-574,-319,127,153,-21
2,110651,187,166,1679,-1028,-574,-319,127,153,-21
2,110657,187,166,1679,-1028,-574,-319,127,153,-21
2,110662,187,166,1679,-1028,-574,-319,127,153,-21
2,110667,186,168,1680,-1020,-575,-327,127,153,-21
2,110673,186,168,1680,-1020,-575,-327,127,153,-21
2,110679,186,168,1680,-1020,-575,-327,127,153,-21
2,110684,186,168,1680,-1020,-575,-327,127,153,-21
2,110690,184,169,1669,-1031,-579,-330,127,153,-21
2,110695,184,169,1669,-1031,-579,-330,127,153,-21
2,110701,184,169,1669,-1031,-579,-330,127,153,-21
2,110708,184,167,1667,-1024,-572,-326,116,150,-12
2,110713,184,167,1667,-1024,-572,-326,116,150,-12
2,110718,184,167,1667,-1024,-572,-326,116,150,-12
2,110726,184,167,1667,-1024,-572,-326,116,150,-12
2,110731,185,169,1678,-1025,-575,-328,116,150,-12
2,110737,185,169,1678,-1025,-575,-328,116,150,-12
2,110743,185,169,1678,-1025,-575,-328,116,150,-12
2,110748,184,166,1681,-1024,-577,-327,116,150,-12
2,110752,184,166,1681,-1024,-577,-327,116,150,-12
2,110757,184,166,1681,-1024,-577,-327,116,150,-12
2,110763,184,166,1681,-1024,-577,-327,116,150,-12
2,110768,187,166,1679,-1024,-571,-323,116,150,-12
2,110772,187,166,1679,-1024,-571,-323,116,150,-12
2,110777,187,166,1679,-1024,-571,-323,116,150,-12
2,110782,187,166,1679,-1024,-571,-323,116,150,-12
2,110787,186,169,1676,-1026,-567,-325,116,150,-12
2,110792,186,169,1676,-1026,-567,-325,116,150,-12
2,110797,186,169,1676,-1026,-567,-325,116,150,-12
2,110802,186,169,1676,-1026,-567,-325,116,150,-12
2,110809,188,168,1675,-1029,-569,-324,116,150,-12
2,110814,188,168,1675,-1029,-569,-324,116,150,-12
2,110820,188,168,1675,-1029,-569,-324,116,150,-12
2,110825,188,168,1675,-1029,-569,-324,116,150,-12
2,110830,186,168,1667,-1031,-573,-328,116,150,-12
2,110835,186,168,1667,-1031,-573,-328,116,150,-12
2,110840,186,168,1667,-1031,-573,-328,116,150,-12
2,110845,186,168,1667,-1031,-573,-328,116,150,-12
2,110852,185,164,1675,-1026,-575,-326,118,152,-22
2,110858,185,164,1675,-1026,-575,-326,118,152,-22
2,110863,185,164,1675,-1026,-575,-326,118,152,-22
2,110868,183,167,1674,-1031,-572,-329,118,152,-22
2,110873,183,167,1674,-1031,-572,-329,118,152,-22
2,110879,183,167,1674,-1031,-572,-329,118,152,-22
2,110884,183,167,1674,-1031,-572,-329,118,152,-22
2,110889,186,171,1671,-1026,-573,-327,118,152,-22
2,110895,186,171,1671,-1026,-573,-327,118,152,-22
2,110901,186,171,1671,-1026,-573,-327,118,152,-22
2,110906,186,171,1671,-1026,-573,-327,118,152,-22
2,110911,187,169,1672,-1025,-580,-327,118,152,-22
2,110917,187,169,1672,-1025,-580,-327,118,152,-22
2,110922,187,169,1672,-1025,-580,-327,118,152,-22
2,110928,186,168,1675,-1033,-583,-328,118,152,-22
2,110935,186,168,1675,-1033,-583,-328,118,152,-22
2,110941,186,168,1675,-1033,-583,-328,118,152,-22
2,110946,186,168,1675,-1033,-583,-328,118,152,-22
2,110951,188,166,1671,-1025,-575,-331,118,152,-22
2,110957,188,166,1671,-1025,-575,-331,118,152,-22
2,110963,188,166,1671,-1025,-575,-331,118,152,-22
2,110969,185,169,1677,-1021,-579,-328,116,148,-16
2,110976,185,169,1677,-1021,-579,-328,116,148,-16
2,110981,185,169,1677,-1021,-579,-328,116,148,-16
2,110987,185,170,1673,-1026,-585,-325,116,148,-16
2,110992,185,170,1673,-1026,-585,-325,116,148,-16
2,110997,185,170,1673,-1026,-585,-325,116,148,-16
2,111002,185,170,1673,-1026,-585,-325,116,148,-16
2,111007,187,171,1671,-1022,-577,-326,116,148,-16
2,111011,187,171,1671,-1022,-577,-326,116,148,-16
2,111016,187,171,1671,-1022,-577,-326,116,148,-16
2,111022,187,171,1671,-1022,-577,-326,116,148,-16
2,111027,185,165,1674,-1023,-577,-325,116,148,-16
2,111032,185,165,1674,-1023,-577,-325,116,148,-16
2,111037,185,165,1674,-1023,-577,-325,116,148,-16
2,111042,185,165,1674,-1023,-577,-325,116,148,-16
2,111047,186,170,1676,-1020,-577,-334,116,148,-16
2,111053,186,170,1676,-1020,-577,-334,116,148,-16
2,111058,186,170,1676,-1020,-577,-334,116,148,-16
2,111064,186,170,1676,-1020,-577,-334,116,148,-16
2,111070,180,168,1672,-1021,-574,-331,116,148,-16
2,111075,180,168,1672,-1021,-574,-331,116,148,-16
2,111081,180,168,1672,-1021,-574,-331,116,148,-16
2,111086,180,168,1672,-1021,-574,-331,116,148,-16
2,111091,186,168,1672,-1028,-580,-328,116,148,-16
2,111097,186,168,1672,-1028,-580,-328,116,148,-16
2,111102,186,168,1672,-1028,-580,-328,116,148,-16
2,111108,186,166,1673,-1030,-579,-328,113,157,-19
2,111114,186,166,1673,-1030,-579,-328,113,157,-19
2,111119,186,166,1673,-1030,-579,-328,113,157,-19
2,111125,186,166,1673,-1030,-579,-328,113,157,-19
2,111130,186,166,1673,-1030,-579,-328,113,157,-19
2,111136,186,166,1673,-1030,-579,-328,113,157,-19
2,111142,186,166,1673,-1030,-579,-328,113,157,-19
2,111148,186,166,1673,-1030,-579,-328,113,157,-19
2,111154,186,166,1673,-1030,-579,-328,113,157,-19
2,111159,186,166,1673,-1030,-579,-328,113,157,-19
2,111165,186,166,1673,-1030,-579,-328,113,157,-19
2,111170,185,167,1673,-1029,-577,-326,113,157,-19
2,111175,185,167,1673,-1029,-577,-326,113,157,-19
2,111181,185,167,1673,-1029,-577,-326,113,157,-19
2,111186,187,164,1673,-1027,-575,-329,113,157,-19
2,111192,187,164,1673,-1027,-575,-329,113,157,-19
2,111197,187,164,1673,-1027,-575,-329,113,157,-19
2,111202,187,164,1673,-1027,-575,-329,113,157,-19
2,111207,187,167,1675,-1022,-572,-324,113,157,-19
2,111212,187,167,1675,-1022,-572,-324,113,157,-19
2,111216,187,167,1675,-1022,-572,-324,113,157,-19
2,111221,187,167,1675,-1022,-572,-324,113,157,-19
2,111226,187,167,1675,-1022,-572,-324,113,157,-19
2,111232,184,166,1673,-1024,-568,-319,121,151,-23
2,111237,184,166,1673,-1024,-568,-319,121,151,-23
2,111242,184,166,1673,-1024,-568,-319,121,151,-23
2,111247,187,166,1670,-1027,-573,-320,121,151,-23
2,111252,187,166,1670,-1027,-573,-320,121,151,-23
2,111257,187,166,1670,-1027,-573,-320,121,151,-23
2,111261,187,166,1670,-1027,-573,-320,121,151,-23
2,111266,187,166,1670,-1027,-573,-320,121,151,-23
2,111271,187,167,1677,-1027,-576,-330,121,151,-23
2,111277,187,167,1677,-1027,-576,-330,121,151,-23
2,111283,187,167,1677,-1027,-576,-330,121,151,-23
2,111289,183,169,1677,-1029,-566,-333,121,151,-23
2,111294,183,169,1677,-1029,-566,-333,121,151,-23
2,111300,183,169,1677,-1029,-566,-333,121,151,-23
2,111304,183,169,1677,-1029,-566,-333,121,151,-23
2,111310,188,166,1669,-1026,-563,-328,121,151,-23
2,111316,188,166,1669,-1026,-563,-328,121,151,-23
2,111322,188,166,1669,-1026,-563,-328,121,151,-23
2,111327,188,166,1669,-1026,-563,-328,121,151,-23
2,111332,187,168,1676,-1028,-576,-330,121,151,-23
2,111338,187,168,1676,-1028,-576,-330,121,151,-23
2,111343,187,168,1676,-1028,-576,-330,121,151,-23
2,111348,187,168,1676,-1028,-576,-330,120,158,-18
2,111353,187,168,1676,-1028,-576,-330,120,158,-18
2,111358,187,168,1676,-1028,-576,-330,120,158,-18
2,111364,187,168,1676,-1028,-576,-330,120,158,-18
2,111369,186,171,1670,-1024,-575,-329,120,158,-18
2,111374,186,171,1670,-1024,-575,-329,120,158,-18
2,111380,186,171,1670,-1024,-575,-329,120,158,-18
2,111387,186,171,1670,-1024,-575,-329,120,158,-18
2,111393,188,170,1667,-1028,-571,-328,120,158,-18
2,111398,188,170,1667,-1028,-571,-328,120,158,-18
2,111405,188,170,1667,-1028,-571,-328,120,158,-18
2,111410,186,170,1670,-1020,-576,-326,120,158,-18
2,111415,186,170,1670,-1020,-576,-326,120,158,-18
2,111420,186,170,1670,-1020,-576,-326,120,158,-18
2,111425,186,170,1670,-1020,-576,-326,120,158,-18
2,111430,186,167,1668,-1027,-574,-325,120,158,-18
2,111435,186,167,1668,-1027,-574,-325,120,158,-18
2,111440,186,167,1668,-1027,-574,-325,120,158,-18
2,111447,186,167,1668,-1027,-574,-325,120,158,-18
2,111453,185,168,1676,-1024,-568,-322,120,158,-18
2,111458,185,168,1676,-1024,-568,-322,120,158,-18
2,111464,185,168,1676,-1024,-568,-322,120,158,-18
2,111469,184,168,1676,-1028,-572,-331,120,158,-18
2,111474,184,168,1676,-1028,-572,-331,120,158,-18
2,111479,184,168,1676,-1028,-572,-331,120,158,-18
2,111485,184,168,1676,-1028,-572,-331,120,158,-18
2,111491,187,168,1675,-1023,-576,-332,112,160,-20
2,111497,187,168,1675,-1023,-576,-332,112,160,-20
2,111502,187,168,1675,-1023,-576,-332,112,160,-20
2,111508,187,171,1673,-1027,-587,-326,112,160,-20
2,111513,187,171,1673,-1027,-587,-326,112,160,-20
2,111518,187,171,1673,-1027,-587,-326,112,160,-20
2,111524,187,171,1673,-1027,-587,-326,112,160,-20
2,111529,186,169,1676,-1030,-573,-328,112,160,-20
2,111535,186,169,1676,-1030,-573,-328,112,160,-20
2,111541,186,169,1676,-1030,-573,-328,112,160,-20
2,111546,186,169,1676,-1030,-573,-328,112,160,-20
2,111551,187,168,1672,-1027,-573,-329,112,160,-20
2,111557,187,168,1672,-1027,-573,-329,112,160,-20
2,111564,187,168,1672,-1027,-573,-329,112,160,-20
2,111569,186,167,1674,-1026,-574,-330,112,160,-20
2,111575,186,167,1674,-1026,-574,-330,112,160,-20
2,111581,186,167,1674,-1026,-574,-330,112,160,-20
2,111587,186,167,1674,-1026,-574,-330,112,160,-20
2,111592,184,169,1671,-1031,-580,-321,112,160,-20
2,111597,184,169,1671,-1031,-580,-321,112,160,-20
2,111602,184,169,1671,-1031,-580,-321,112,160,-20
2,111608,186,169,1671,-1034,-581,-321,108,154,-24
2,111613,186,169,1671,-1034,-581,-321,108,154,-24
2,111620,186,169,1671,-1034,-581,-321,108,154,-24
2,111626,186,169,1671,-1034,-581,-321,108,154,-24
2,111631,184,168,1673,-1028,-575,-323,108,154,-24
2,111637,184,168,1673,-1028,-575,-323,108,154,-24
2,111642,184,168,1673,-1028,-575,-323,108,154,-24
2,111648,185,169,1671,-1025,-576,-324,108,154,-24
2,111652,185,169,1671,-1025,-576,-324,108,154,-24
2,111659,185,169,1671,-1025,-576,-324,108,154,-24
2,111665,185,169,1671,-1025,-576,-324,108,154,-24
2,111670,189,166,1674,-1029,-578,-326,108,154,-24
2,111675,189,166,1674,-1029,-578,-326,108,154,-24
2,111681,189,166,1674,-1029,-578,-326,108,154,-24
2,111687,189,166,1674,-1029,-578,-326,108,154,-24
2,111692,188,171,1671,-1022,-575,-324,108,154,-24
2,111698,188,171,1671,-1022,-575,-324,108,154,-24
2,111704,188,171,1671,-1022,-575,-324,108,154,-24
2,111710,189,167,1672,-1026,-572,-332,108,154,-24
2,111714,189,167,1672,-1026,-572,-332,108,154,-24
2,111719,189,167,1672,-1026,-572,-332,108,154,-24
2,111724,189,167,1672,-1026,-572,-332,108,154,-24
2,111729,185,167,1671,-1024,-580,-322,108,154,-24
2,111734,185,167,1671,-1024,-580,-322,108,154,-24
2,111738,185,167,1671,-1024,-580,-322,108,154,-24
2,111744,185,167,1671,-1024,-580,-322,108,154,-24
2,111749,186,167,1678,-1021,-577,-325,116,140,-18
2,111754,186,167,1678,-1021,-577,-325,116,140,-18
2,111759,186,167,1678,-1021,-577,-325,116,140,-18
2,111764,186,167,1678,-1021,-577,-325,116,140,-18
2,111769,183,165,1678,-1015,-575,-325,116,140,-18
2,111774,183,165,1678,-1015,-575,-325,116,140,-18
2,111779,183,165,1678,-1015,-575,-325,116,140,-18
2,111784,183,165,1678,-1015,-575,-325,116,140,-18
2,111790,188,169,1679,-1025,-576,-326,116,140,-18
2,111796,188,169,1679,-1025,-576,-326,116,140,-18
2,111801,188,169,1679,-1025,-576,-326,116,140,-18
2,111806,188,169,1679,-1025,-576,-326,116,140,-18
2,111812,187,169,1675,-1021,-569,-333,116,140,-18
2,111817,187,169,1675,-1021,-569,-333,116,140,-18
2,111823,187,169,1675,-1021,-569,-333,116,140,-18
2,111828,183,165,1672,-1024,-574,-331,116,140,-18
2,111835,183,165,1672,-1024,-574,-331,116,140,-18
2,111841,183,165,1672,-1024,-574,-331,116,140,-18
2,111846,183,165,1672,-1024,-574,-331,116,140,-18
2,111852,187,167,1672,-1025,-576,-327,116,140,-18
2,111858,187,167,1672,-1025,-576,-327,116,140,-18
2,111863,187,167,1672,-1025,-576,-327,116,140,-18
2,111869,186,169,1674,-1021,-575,-325,117,147,-13
2,111875,186,169,1674,-1021,-575,-325,117,147,-13
2,111880,186,169,1674,-1021,-575,-325,117,147,-13
2,111885,186,169,1674,-1021,-575,-325,117,147,-13
2,111890,185,167,1673,-1024,-573,-328,117,147,-13
2,111895,185,167,1673,-1024,-573,-328,117,147,-13
2,111900,185,167,1673,-1024,-573,-328,117,147,-13
2,111905,185,167,1673,-1024,-573,-328,117,147,-13
2,111909,187,169,1673,-1021,-576,-327,117,147,-13
2,111915,187,169,1673,-1021,-576,-327,117,147,-13
2,111920,187,169,1673,-1021,-576,-327,117,147,-13
2,111925,187,169,1673,-1021,-576,-327,117,147,-13
2,111930,186,171,1674,-1034,-573,-323,117,147,-13
2,111934,186,171,1674,-1034,-573,-323,117,147,-13
2,111939,186,171,1674,-1034,-573,-323,117,147,-13
2,111944,186,171,1674,-1034,-573,-323,117,147,-13
2,111949,183,168,1674,-1027,-575,-319,117,147,-13
2,111954,183,168,1674,-1027,-575,-319,117,147,-13
2,111960,183,168,1674,-1027,-575,-319,117,147,-13
2,111965,183,168,1674,-1027,-575,-319,117,147,-13
2,111970,187,169,1679,-1032,-575,-325,117,147,-13
2,111976,187,169,1679,-1032,-575,-325,117,147,-13
2,111981,187,169,1679,-1032,-575,-325,117,147,-13
2,111986,187,169,1679,-1032,-575,-325,117,147,-13
2,111992,188,167,1676,-1021,-577,-329,118,152,-24
2,111998,188,167,1676,-1021,-577,-329,118,152,-24
2,112005,188,167,1676,-1021,-577,-329,118,152,-24
2,112010,188,167,1679,-1030,-576,-336,118,152,-24
2,112017,188,167,1679,-1030,-576,-336,118,152,-24
2,112023,188,167,1679,-1030,-576,-336,118,152,-24
2,112029,186,168,1674,-1026,-576,-333,118,152,-24
2,112034,186,168,1674,-1026,-576,-333,118,152,-24
2,112040,186,168,1674,-1026,-576,-333,118,152,-24
2,112047,186,168,1674,-1026,-576,-333,118,152,-24
2,112052,187,169,1671,-1032,-577,-332,118,152,-24
2,112058,187,169,1671,-1032,-577,-332,118,152,-24
2,112064,187,169,1671,-1032,-577,-332,118,152,-24
2,112069,184,169,1667,-1027,-576,-321,118,152,-24
2,112074,184,169,1667,-1027,-576,-321,118,152,-24
2,112080,184,169,1667,-1027,-576,-321,118,152,-24
2,112086,184,169,1667,-1027,-576,-321,118,152,-24
2,112092,186,167,1673,-1026,-579,-323,118,152,-24
2,112097,186,167,1673,-1026,-579,-323,118,152,-24
2,112102,186,167,1673,-1026,-579,-323,118,152,-24
2,112107,186,167,1673,-1026,-579,-323,118,152,-24
2,112113,187,168,1671,-1028,-584,-330,118,152,-24
2,112118,187,168,1671,-1028,-584,-330,118,152,-24
2,112123,187,168,1671,-1028,-584,-330,118,152,-24
2,112129,187,165,1678,-1031,-574,-326,114,146,-18
2,112134,187,165,1678,-1031,-574,-326,114,146,-18
2,112140,187,165,1678,-1031,-574,-326,114,146,-18
2,112145,187,165,1678,-1031,-574,-326,114,146,-18
2,112151,184,168,1679,-1018,-573,-330,114,146,-18
2,112157,184,168,1679,-1018,-573,-330,114,146,-18
2,112162,184,168,1679,-1018,-573,-330,114,146,-18
2,112168,187,170,1673,-1023,-576,-329,114,146,-18
2,112174,187,170,1673,-1023,-576,-329,114,146,-18
2,112179,187,170,1673,-1023,-576,-329,114,146,-18
2,112186,187,170,1673,-1023,-576,-329,114,146,-18
2,112191,186,171,1669,-1026,-579,-330,114,146,-18
2,112196,186,171,1669,-1026,-579,-330,114,146,-18
2,112202,186,171,1669,-1026,-579,-330,114,146,-18
2,112208,187,168,1669,-1025,-576,-324,114,146,-18
2,112212,187,168,1669,-1025,-576,-324,114,146,-18
2,112218,187,168,1669,-1025,-576,-324,114,146,-18
2,112223,187,168,1669,-1025,-576,-324,114,146,-18
2,112228,187,168,1669,-1025,-576,-324,114,146,-18
2,112233,187,168,1673,-1024,-574,-329,114,146,-18
2,112238,187,168,1673,-1024,-574,-329,114,146,-18
2,112243,187,168,1673,-1024,-574,-329,114,146,-18
2,112247,187,168,1673,-1024,-574,-329,114,146,-18
2,112252,188,169,1675,-1030,-581,-324,112,152,-18
2,112258,188,169,1675,-1030,-581,-324,112,152,-18
2,112263,188,169,1675,-1030,-581,-324,112,152,-18
2,112267,188,169,1675,-1030,-581,-324,112,152,-18
2,112272,183,167,1675,-1028,-577,-328,112,152,-18
2,112276,183,167,1675,-1028,-577,-328,112,152,-18
2,112280,183,167,1675,-1028,-577,-328,112,152,-18
2,112285,183,167,1675,-1028,-577,-328,112,152,-18
2,112290,182,169,1673,-1024,-571,-332,112,152,-18
2,112295,182,169,1673,-1024,-571,-332,112,152,-18
2,112300,182,169,1673,-1024,-571,-332,112,152,-18
2,112305,182,169,1673,-1024,-571,-332,112,152,-18
2,112310,184,167,1675,-1028,-577,-320,112,152,-18
2,112314,184,167,1675,-1028,-577,-320,112,152,-18
2,112319,184,167,1675,-1028,-577,-320,112,152,-18
2,112324,184,167,1675,-1028,-577,-320,112,152,-18
2,112328,186,171,1671,-1027,-574,-324,112,152,-18
2,112333,186,171,1671,-1027,-574,-324,112,152,-18
2,112338,186,171,1671,-1027,-574,-324,112,152,-18
2,112344,186,171,1671,-1027,-574,-324,112,152,-18
2,112349,185,171,1673,-1028,-581,-325,112,152,-18
2,112354,185,171,1673,-1028,-581,-325,112,152,-18
2,112359,185,171,1673,-1028,-581,-325,112,152,-18
2,112364,185,171,1673,-1028,-581,-325,112,152,-18
2,112369,186,167,1678,-1026,-585,-325,112,152,-18
2,112374,186,167,1678,-1026,-585,-325,112,152,-18
2,112378,186,167,1678,-1026,-585,-325,112,152,-18
2,112384,186,167,1678,-1026,-585,-325,112,152,-18
2,112389,186,171,1684,-1020,-576,-319,124,150,-18
2,112394,186,171,1684,-1020,-576,-319,124,150,-18
2,112399,186,171,1684,-1020,-576,-319,124,150,-18
2,112404,186,171,1684,-1020,-576,-319,124,150,-18
2,112409,187,168,1673,-1022,-575,-326,124,150,-18
2,112414,187,168,1673,-1022,-575,-326,124,150,-18
2,112418,187,168,1673,-1022,-575,-326,124,150,-18
2,112423,187,168,1673,-1022,-575,-326,124,150,-18
2,112429,184,168,1675,-1022,-574,-324,124,150,-18
2,112434,184,168,1675,-1022,-574,-324,124,150,-18
2,112439,184,168,1675,-1022,-574,-324,124,150,-18
2,112443,184,168,1675,-1022,-574,-324,124,150,-18
2,112448,187,170,1674,-1023,-577,-330,124,150,-18
2,112453,187,170,1674,-1023,-577,-330,124,150,-18
2,112458,187,170,1674,-1023,-577,-330,124,150,-18
2,112463,187,170,1674,-1023,-577,-330,124,150,-18
2,112468,188,171,1674,-1026,-575,-330,124,150,-18
2,112474,188,171,1674,-1026,-575,-330,124,150,-18
2,112478,188,171,1674,-1026,-575,-330,124,150,-18
2,112483,188,171,1674,-1026,-575,-330,124,150,-18
2,112487,188,171,1674,-1026,-575,-330,124,150,-18
2,112492,185,169,1675,-1024,-575,-330,124,150,-18
2,112497,185,169,1675,-1024,-575,-330,124,150,-18
2,112502,185,169,1675,-1024,-575,-330,124,150,-18
2,112506,185,169,1675,-1024,-575,-330,124,150,-18
2,112512,186,166,1672,-1026,-572,-333,117,143,-19
2,112517,186,166,1672,-1026,-572,-333,117,143,-19
2,112522,186,166,1672,-1026,-572,-333,117,143,-19
2,112526,186,166,1672,-1026,-572,-333,117,143,-19
2,112531,186,171,1675,-1025,-577,-332,117,143,-19
2,112536,186,171,1675,-1025,-577,-332,117,143,-19
2,112541,186,171,1675,-1025,-577,-332,117,143,-19
2,112546,186,171,1675,-1025,-577,-332,117,143,-19
2,112551,186,166,1671,-1027,-572,-327,117,143,-19
2,112558,186,166,1671,-1027,-572,-327,117,143,-19
2,112563,186,166,1671,-1027,-572,-327,117,143,-19
2,112568,186,166,1671,-1027,-572,-327,117,143,-19
2,112574,185,169,1669,-1023,-573,-331,117,143,-19
2,112579,185,169,1669,-1023,-573,-331,117,143,-19
2,112584,185,169,1669,-1023,-573,-331,117,143,-19
2,112588,185,172,1673,-1024,-579,-329,117,143,-19
2,112592,185,172,1673,-1024,-579,-329,117,143,-19
2,112598,185,172,1673,-1024,-579,-329,117,143,-19
2,112603,185,172,1673,-1024,-579,-329,117,143,-19
2,112608,185,172,1673,-1024,-579,-329,117,143,-19
2,112613,189,172,1669,-1027,-576,-325,117,143,-19
2,112617,189,172,1669,-1027,-576,-325,117,143,-19
2,112622,189,172,1669,-1027,-576,-325,117,143,-19
2,112628,189,172,1669,-1027,-576,-325,117,143,-19
2,112633,187,170,1673,-1021,-580,-336,119,149,-17
2,112638,187,170,1673,-1021,-580,-336,119,149,-17
2,112644,187,170,1673,-1021,-580,-336,119,149,-17
2,112649,187,170,1673,-1021,-580,-336,119,149,-17
2,112653,189,169,1676,-1016,-580,-330,119,149,-17
2,112658,189,169,1676,-1016,-580,-330,119,149,-17
2,112662,189,169,1676,-1016,-580,-330,119,149,-17
2,112668,189,169,1676,-1016,-580,-330,119,149,-17
2,112673,187,165,1676,-1024,-577,-331,119,149,-17
2,112677,187,165,1676,-1024,-577,-331,119,149,-17
2,112683,187,165,1676,-1024,-577,-331,119,149,-17
2,112688,187,165,1676,-1024,-577,-331,119,149,-17
2,112692,187,169,1674,-1028,-573,-330,119,149,-17
2,112697,187,169,1674,-1028,-573,-330,119,149,-17
2,112702,187,169,1674,-1028,-573,-330,119,149,-17
2,112707,187,169,1674,-1028,-573,-330,119,149,-17
2,112711,187,169,1679,-1029,-574,-331,119,149,-17
2,112716,187,169,1679,-1029,-574,-331,119,149,-17
2,112721,187,169,1679,-1029,-574,-331,119,149,-17
2,112727,187,169,1679,-1029,-574,-331,119,149,-17
2,112732,188,168,1673,-1023,-569,-333,119,149,-17
2,112737,188,168,1673,-1023,-569,-333,119,149,-17
2,112741,188,168,1673,-1023,-569,-333,119,149,-17
2,112746,188,168,1673,-1023,-569,-333,119,149,-17
2,112751,188,166,1676,-1024,-574,-326,119,149,-17
2,112756,188,166,1676,-1024,-574,-326,119,149,-17
2,112761,188,166,1676,-1024,-574,-326,119,149,-17
2,112766,188,166,1676,-1024,-574,-326,119,149,-17
2,112772,185,166,1679,-1012,-572,-330,125,149,-9
2,112776,185,166,1679,-1012,-572,-330,125,149,-9
2,112781,185,166,1679,-1012,-572,-330,125,149,-9
2,112787,185,166,1679,-1012,-572,-330,125,149,-9
2,112793,186,168,1679,-1018,-578,-325,125,149,-9
2,112798,186,168,1679,-1018,-578,-325,125,149,-9
2,112803,186,168,1679,-1018,-578,-325,125,149,-9
2,112808,186,168,1679,-1018,-578,-325,125,149,-9
2,112814,186,169,1677,-1023,-581,-325,125,149,-9
2,112819,186,169,1677,-1023,-581,-325,125,149,-9
2,112824,186,169,1677,-1023,-581,-325,125,149,-9
2,112829,185,168,1673,-1015,-570,-331,125,149,-9
2,112834,185,168,1673,-1015,-570,-331,125,149,-9
2,112840,185,168,1673,-1015,-570,-331,125,149,-9
2,112844,185,168,1673,-1015,-570,-331,125,149,-9
2,112849,187,168,1671,-1019,-569,-332,125,149,-9
2,112855,187,168,1671,-1019,-569,-332,125,149,-9
2,112859,187,168,1671,-1019,-569,-332,125,149,-9
2,112864,187,168,1671,-1019,-569,-332,125,149,-9
2,112869,187,171,1672,-1020,-577,-331,125,149,-9
2,112874,187,171,1672,-1020,-577,-331,125,149,-9
2,112879,187,171,1672,-1020,-577,-331,125,149,-9
2,112883,187,171,1672,-1020,-577,-331,125,149,-9
2,112888,187,171,1672,-1020,-577,-331,125,149,-9
2,112893,188,171,1676,-1025,-580,-328,114,146,-18
2,112899,188,171,1676,-1025,-580,-328,114,146,-18
2,112904,188,171,1676,-1025,-580,-328,114,146,-18
2,112909,188,171,1676,-1025,-580,-328,114,146,-18
2,112913,186,167,1679,-1023,-575,-323,114,146,-18
2,112917,186,167,1679,-1023,-575,-323,114,146,-18
2,112922,186,167,1679,-1023,-575,-323,114,146,-18
2,112927,186,167,1679,-1023,-575,-323,114,146,-18
2,112931,186,167,1676,-1020,-571,-323,114,146,-18
2,112936,186,167,1676,-1020,-571,-323,114,146,-18
2,112942,186,167,1676,-1020,-571,-323,114,146,-18
2,112947,186,167,1676,-1020,-571,-323,114,146,-18
2,112951,189,169,1677,-1027,-580,-327,114,146,-18
2,112956,189,169,1677,-1027,-580,-327,114,146,-18
2,112960,189,169,1677,-1027,-580,-327,114,146,-18
2,112965,189,169,1677,-1027,-580,-327,114,146,-18
2,112970,189,169,1677,-1027,-580,-327,114,146,-18
2,112975,189,169,1677,-1027,-580,-327,114,146,-18
2,112980,189,169,1677,-1027,-580,-327,114,146,-18
2,112986,189,169,1677,-1027,-580,-327,114,146,-18
2,112991,184,168,1665,-1028,-579,-332,114,146,-18
2,112995,184,168,1665,-1028,-579,-332,114,146,-18
2,113000,184,168,1665,-1028,-579,-332,114,146,-18
2,113006,184,168,1665,-1028,-579,-332,114,146,-18
2,113010,186,167,1676,-1023,-578,-330,114,146,-18
2,113015,186,167,1676,-1023,-578,-330,114,146,-18
2,113020,186,167,1676,-1023,-578,-330,114,146,-18
2,113026,186,167,1676,-1023,-578,-330,114,146,-18
2,113031,183,168,1682,-1021,-578,-333,111,143,-25
2,113036,183,168,1682,-1021,-578,-333,111,143,-25
2,113041,183,168,1682,-1021,-578,-333,111,143,-25
2,113046,183,168,1682,-1021,-578,-333,111,143,-25
2,113051,186,168,1680,-1025,-578,-330,111,143,-25
2,113056,186,168,1680,-1025,-578,-330,111,143,-25
2,113061,186,168,1680,-1025,-578,-330,111,143,-25
2,113067,186,168,1680,-1025,-578,-330,111,143,-25
2,113072,187,167,1670,-1018,-575,-331,111,143,-25
2,113077,187,167,1670,-1018,-575,-331,111,143,-25
2,113082,187,167,1670,-1018,-575,-331,111,143,-25
2,113087,187,167,1670,-1018,-575,-331,111,143,-25
2,113091,186,172,1676,-1021,-572,-327,111,143,-25
2,113096,186,172,1676,-1021,-572,-327,111,143,-25
2,113101,186,172,1676,-1021,-572,-327,111,143,-25
2,113106,186,172,1676,-1021,-572,-327,111,143,-25
2,113112,184,169,1670,-1028,-576,-333,111,143,-25
2,113117,184,169,1670,-1028,-576,-333,111,143,-25
2,113122,184,169,1670,-1028,-576,-333,111,143,-25
2,113127,184,169,1670,-1028,-576,-333,111,143,-25
2,113132,186,167,1668,-1025,-571,-332,111,143,-25
2,113138,186,167,1668,-1025,-571,-332,111,143,-25
2,113143,186,167,1668,-1025,-571,-332,111,143,-25
2,113148,186,167,1668,-1025,-571,-332,111,143,-25
2,113155,185,167,1677,-1024,-582,-326,118,156,-18
2,113161,185,167,1677,-1024,-582,-326,118,156,-18
2,113166,185,167,1677,-1024,-582,-326,118,156,-18
2,113172,185,169,1675,-1028,-580,-330,118,156,-18
2,113178,185,169,1675,-1028,-580,-330,118,156,-18
2,113183,185,169,1675,-1028,-580,-330,118,156,-18
2,113189,186,170,1677,-1020,-578,-328,118,156,-18
2,113195,186,170,1677,-1020,-578,-328,118,156,-18
2,113200,186,170,1677,-1020,-578,-328,118,156,-18
2,113205,186,170,1677,-1020,-578,-328,118,156,-18
2,113210,184,169,1672,-1022,-576,-336,118,156,-18
2,113215,184,169,1672,-1022,-576,-336,118,156,-18
2,113219,184,169,1672,-1022,-576,-336,118,156,-18
2,113225,184,169,1672,-1022,-576,-336,118,156,-18
2,113229,187,167,1671,-1020,-573,-329,118,156,-18
2,113234,187,167,1671,-1020,-573,-329,118,156,-18
2,113240,187,167,1671,-1020,-573,-329,118,156,-18
2,113245,187,167,1671,-1020,-573,-329,118,156,-18
2,113250,189,170,1668,-1020,-571,-328,118,156,-18
2,113254,189,170,1668,-1020,-571,-328,118,156,-18
2,113259,189,170,1668,-1020,-571,-328,118,156,-18
2,113263,189,170,1668,-1020,-571,-328,118,156,-18
2,113267,189,170,1668,-1020,-571,-328,118,156,-18
2,113272,186,168,1674,-1021,-577,-330,120,148,-22
2,113276,186,168,1674,-1021,-577,-330,120,148,-22
2,113282,186,168,1674,-1021,-577,-330,120,148,-22
2,113287,186,168,1674,-1021,-577,-330,120,148,-22
2,113292,185,167,1675,-1023,-579,-324,120,148,-22
2,113297,185,167,1675,-1023,-579,-324,120,148,-22
2,113302,185,167,1675,-1023,-579,-324,120,148,-22
2,113307,185,167,1675,-1023,-579,-324,120,148,-22
2,113312,189,169,1679,-1021,-576,-327,120,148,-22
2,113316,189,169,1679,-1021,-576,-327,120,148,-22
2,113321,189,169,1679,-1021,-576,-327,120,148,-22
2,113327,189,169,1679,-1021,-576,-327,120,148,-22
2,113331,190,168,1678,-1028,-575,-327,120,148,-22
2,113336,190,168,1678,-1028,-575,-327,120,148,-22
2,113341,190,168,1678,-1028,-575,-327,120,148,-22
2,113345,190,168,1678,-1028,-575,-327,120,148,-22
2,113350,186,169,1670,-1026,-575,-324,120,148,-22
2,113355,186,169,1670,-1026,-575,-324,120,148,-22
2,113360,186,169,1670,-1026,-575,-324,120,148,-22
2,113366,186,169,1670,-1026,-575,-324,120,148,-22
2,113371,187,167,1673,-1029,-573,-328,120,148,-22
2,113375,187,167,1673,-1029,-573,-328,120,148,-22
2,113381,187,167,1673,-1029,-573,-328,120,148,-22
2,113385,187,167,1673,-1029,-573,-328,120,148,-22
2,113390,191,171,1672,-1030,-573,-328,120,148,-22
2,113394,191,171,1672,-1030,-573,-328,120,148,-22
2,113399,191,171,1672,-1030,-573,-328,120,148,-22
2,113404,191,171,1672,-1030,-573,-328,120,148,-22
2,113410,191,171,1672,-1030,-573,-328,120,148,-22
2,113415,188,167,1684,-1026,-574,-326,114,152,-22
2,113419,188,167,1684,-1026,-574,-326,114,152,-22
2,113424,188,167,1684,-1026,-574,-326,114,152,-22
2,113429,188,167,1684,-1026,-574,-326,114,152,-22
2,113434,184,167,1675,-1030,-575,-322,114,152,-22
2,113438,184,167,1675,-1030,-575,-322,114,152,-22
2,113443,184,167,1675,-1030,-575,-322,114,152,-22
2,113448,184,167,1675,-1030,-575,-322,114,152,-22
2,113454,183,170,1676,-1025,-575,-327,114,152,-22
2,113459,183,170,1676,-1025,-575,-327,114,152,-22
2,113464,183,170,1676,-1025,-575,-327,114,152,-22
2,113469,183,170,1676,-1025,-575,-327,114,152,-22
2,113474,185,169,1670,-1020,-573,-328,114,152,-22
2,113479,185,169,1670,-1020,-573,-328,114,152,-22
2,113484,185,169,1670,-1020,-573,-328,114,152,-22
2,113488,185,169,1670,-1020,-573,-328,114,152,-22
2,113494,185,168,1673,-1024,-575,-329,114,152,-22
2,113499,185,168,1673,-1024,-575,-329,114,152,-22
2,113504,185,168,1673,-1024,-575,-329,114,152,-22
2,113509,185,168,1673,-1024,-575,-329,114,152,-22
2,113513,189,172,1680,-1026,-571,-329,114,152,-22
2,113518,189,172,1680,-1026,-571,-329,114,152,-22
2,113524,189,172,1680,-1026,-571,-329,114,152,-22
2,113528,189,172,1680,-1026,-571,-329,114,152,-22
2,113533,184,169,1684,-1029,-573,-326,115,141,-13
2,113539,184,169,1684,-1029,-573,-326,115,141,-13
2,113544,184,169,1684,-1029,-573,-326,115,141,-13
2,113549,184,169,1684,-1029,-573,-326,115,141,-13
2,113554,189,168,1675,-1023,-574,-326,115,141,-13
2,113559,189,168,1675,-1023,-574,-326,115,141,-13
2,113564,189,168,1675,-1023,-574,-326,115,141,-13
2,113568,189,168,1675,-1023,-574,-326,115,141,-13
2,113573,187,170,1678,-1031,-574,-322,115,141,-13
2,113579,187,170,1678,-1031,-574,-322,115,141,-13
2,113584,187,170,1678,-1031,-574,-322,115,141,-13
2,113589,187,170,1678,-1031,-574,-322,115,141,-13
2,113594,182,171,1672,-1026,-573,-324,115,141,-13
2,113598,182,171,1672,-1026,-573,-324,115,141,-13
2,113602,182,171,1672,-1026,-573,-324,115,141,-13
2,113607,182,171,1672,-1026,-573,-324,115,141,-13
2,113612,182,170,1676,-1029,-573,-326,115,141,-13
2,113616,182,170,1676,-1029,-573,-326,115,141,-13
2,113622,182,170,1676,-1029,-573,-326,115,141,-13
2,113627,182,170,1676,-1029,-573,-326,115,141,-13
2,113632,186,169,1676,-1025,-576,-326,115,141,-13
2,113637,186,169,1676,-1025,-576,-326,115,141,-13
2,113641,186,169,1676,-1025,-576,-326,115,141,-13
2,113646,186,169,1676,-1025,-576,-326,115,141,-13
2,113651,184,168,1672,-1027,-584,-326,115,141,-13
2,113656,184,168,1672,-1027,-584,-326,115,141,-13
2,113661,184,168,1672,-1027,-584,-326,115,141,-13
2,113666,184,168,1672,-1027,-584,-326,115,141,-13
2,113671,186,170,1680,-1020,-577,-325,116,156,-10
2,113676,186,170,1680,-1020,-577,-325,116,156,-10
2,113681,186,170,1680,-1020,-577,-325,116,156,-10
2,113686,186,170,1680,-1020,-577,-325,116,156,-10
2,113691,186,172,1677,-1025,-575,-325,116,156,-10
2,113696,186,172,1677,-1025,-575,-325,116,156,-10
2,113700,186,172,1677,-1025,-575,-325,116,156,-10
2,113705,186,172,1677,-1025,-575,-325,116,156,-10
2,113711,184,170,1670,-1031,-580,-325,116,156,-10
2,113716,184,170,1670,-1031,-580,-325,116,156,-10
2,113721,184,170,1670,-1031,-580,-325,116,156,-10
2,113726,184,170,1670,-1031,-580,-325,116,156,-10
2,113731,185,169,1670,-1017,-571,-330,116,156,-10
2,113735,185,169,1670,-1017,-571,-330,116,156,-10
2,113739,185,169,1670,-1017,-571,-330,116,156,-10
2,113744,185,169,1670,-1017,-571,-330,116,156,-10
2,113750,185,169,1670,-1017,-571,-330,116,156,-10
2,113755,186,166,1676,-1014,-578,-334,116,156,-10
2,113759,186,166,1676,-1014,-578,-334,116,156,-10
2,113764,186,166,1676,-1014,-578,-334,116,156,-10
2,113768,186,166,1676,-1014,-578,-334,116,156,-10
2,113773,187,170,1670,-1010,-576,-331,116,156,-10
2,113778,187,170,1670,-1010,-576,-331,116,156,-10
2,113783,187,170,1670,-1010,-576,-331,116,156,-10
2,113787,187,170,1670,-1010,-576,-331,116,156,-10
2,113793,188,168,1673,-1016,-573,-330,118,150,-16
2,113798,188,168,1673,-1016,-573,-330,118,150,-16
2,113803,188,168,1673,-1016,-573,-330,118,150,-16
2,113807,188,168,1673,-1016,-573,-330,118,150,-16
2,113812,190,171,1674,-1022,-579,-323,118,150,-16
2,113816,190,171,1674,-1022,-579,-323,118,150,-16
2,113821,190,171,1674,-1022,-579,-323,118,150,-16
2,113825,190,171,1674,-1022,-579,-323,118,150,-16
2,113830,190,171,1676,-1034,-575,-323,118,150,-16
2,113836,190,171,1676,-1034,-575,-323,118,150,-16
2,113841,190,171,1676,-1034,-575,-323,118,150,-16
2,113846,190,171,1676,-1034,-575,-323,118,150,-16
2,113850,192,168,1679,-1037,-578,-324,118,150,-16
2,113856,192,168,1679,-1037,-578,-324,118,150,-16
2,113861,192,168,1679,-1037,-578,-324,118,150,-16
2,113866,192,168,1679,-1037,-578,-324,118,150,-16
2,113871,189,169,1673,-1034,-570,-315,118,150,-16
2,113875,189,169,1673,-1034,-570,-315,118,150,-16
2,113881,189,169,1673,-1034,-570,-315,118,150,-16
2,113886,189,169,1673,-1034,-570,-315,118,150,-16
2,113892,180,171,1672,-1028,-571,-321,118,150,-16
2,113897,180,171,1672,-1028,-571,-321,118,150,-16
2,113902,180,171,1672,-1028,-571,-321,118,150,-16
2,113907,180,171,1672,-1028,-571,-321,118,150,-16
2,113912,174,169,1675,-1023,-573,-319,117,147,-25
2,113916,174,169,1675,-1023,-573,-319,117,147,-25
2,113922,174,169,1675,-1023,-573,-319,117,147,-25
2,113926,174,169,1675,-1023,-573,-319,117,147,-25
2,113931,178,161,1675,-1025,-575,-327,117,147,-25
2,113936,178,161,1675,-1025,-575,-327,117,147,-25
2,113941,178,161,1675,-1025,-575,-327,117,147,-25
2,113946,178,161,1675,-1025,-575,-327,117,147,-25
2,113950,190,165,1674,-1028,-577,-326,117,147,-25
2,113956,190,165,1674,-1028,-577,-326,117,147,-25
2,113960,190,165,1674,-1028,-577,-326,117,147,-25
2,113966,190,165,1674,-1028,-577,-326,117,147,-25
2,113971,190,172,1672,-1030,-574,-321,117,147,-25
2,113975,190,172,1672,-1030,-574,-321,117,147,-25
2,113981,190,172,1672,-1030,-574,-321,117,147,-25
2,113985,190,172,1672,-1030,-574,-321,117,147,-25
2,113990,190,172,1672,-1030,-574,-321,117,147,-25
2,113994,185,176,1678,-1027,-575,-331,117,147,-25
2,113999,185,176,1678,-1027,-575,-331,117,147,-25
2,114003,185,176,1678,-1027,-575,-331,117,147,-25
2,114009,185,176,1678,-1027,-575,-331,117,147,-25
2,114014,185,172,1673,-1031,-579,-332,117,147,-25
2,114020,185,172,1673,-1031,-579,-332,117,147,-25
2,114025,185,172,1673,-1031,-579,-332,117,147,-25
2,114030,185,172,1673,-1031,-579,-332,117,147,-25
2,114035,184,162,1677,-1024,-575,-333,117,147,-25
2,114041,184,162,1677,-1024,-575,-333,117,147,-25
2,114046,184,162,1677,-1024,-575,-333,117,147,-25
2,114053,179,164,1676,-1016,-573,-325,118,148,-20
2,114058,179,164,1676,-1016,-573,-325,118,148,-20
2,114063,179,164,1676,-1016,-573,-325,118,148,-20
2,114068,179,164,1676,-1016,-573,-325,118,148,-20
2,114073,181,169,1672,-1026,-572,-324,118,148,-20
2,114077,181,169,1672,-1026,-572,-324,118,148,-20
2,114082,181,169,1672,-1026,-572,-324,118,148,-20
2,114087,181,169,1672,-1026,-572,-324,118,148,-20
2,114093,190,171,1672,-1030,-575,-328,118,148,-20
2,114098,190,171,1672,-1030,-575,-328,118,148,-20
2,114103,190,171,1672,-1030,-575,-328,118,148,-20
2,114108,190,171,1672,-1030,-575,-328,118,148,-20
2,114113,194,167,1673,-1025,-575,-334,118,148,-20
2,114118,194,167,1673,-1025,-575,-334,118,148,-20
2,114123,194,167,1673,-1025,-575,-334,118,148,-20
2,114128,194,167,1673,-1025,-575,-334,118,148,-20
2,114132,191,166,1674,-1021,-574,-325,118,148,-20
2,114138,191,166,1674,-1021,-574,-325,118,148,-20
2,114143,191,166,1674,-1021,-574,-325,118,148,-20
2,114147,191,166,1674,-1021,-574,-325,118,148,-20
2,114152,181,172,1674,-1020,-580,-321,118,148,-20
2,114157,181,172,1674,-1020,-580,-321,118,148,-20
2,114162,181,172,1674,-1020,-580,-321,118,148,-20
2,114167,181,172,1674,-1020,-580,-321,118,148,-20
2,114172,178,168,1678,-1019,-582,-325,114,148,-18
2,114178,178,168,1678,-1019,-582,-325,114,148,-18
2,114183,178,168,1678,-1019,-582,-325,114,148,-18
2,114188,178,168,1678,-1019,-582,-325,114,148,-18
2,114193,184,162,1677,-1023,-580,-333,114,148,-18
2,114198,184,162,1677,-1023,-580,-333,114,148,-18
2,114203,184,162,1677,-1023,-580,-333,114,148,-18
2,114207,184,162,1677,-1023,-580,-333,114,148,-18
2,114212,191,168,1673,-1019,-579,-330,114,148,-18
2,114217,191,168,1673,-1019,-579,-330,114,148,-18
2,114222,191,168,1673,-1019,-579,-330,114,148,-18
2,114227,191,168,1673,-1019,-579,-330,114,148,-18
2,114232,191,171,1678,-1021,-580,-330,114,148,-18
2,114237,191,171,1678,-1021,-580,-330,114,148,-18
2,114242,191,171,1678,-1021,-580,-330,114,148,-18
2,114247,191,171,1678,-1021,-580,-330,114,148,-18
2,114252,187,171,1673,-1023,-576,-337,114,148,-18
2,114257,187,171,1673,-1023,-576,-337,114,148,-18
2,114262,187,171,1673,-1023,-576,-337,114,148,-18
2,114267,187,171,1673,-1023,-576,-337,114,148,-18
2,114271,183,171,1675,-1020,-574,-340,114,148,-18
2,114276,183,171,1675,-1020,-574,-340,114,148,-18
2,114281,183,171,1675,-1020,-574,-340,114,148,-18
2,114286,183,171,1675,-1020,-574,-340,114,148,-18
2,114291,181,165,1674,-1022,-580,-334,114,148,-18
2,114296,181,165,1674,-1022,-580,-334,114,148,-18
2,114301,181,165,1674,-1022,-580,-334,114,148,-18
2,114306,181,165,1674,-1022,-580,-334,114,148,-18
2,114311,186,165,1673,-1027,-581,-325,120,148,-18
2,114316,186,165,1673,-1027,-581,-325,120,150,-16
2,114321,186,165,1673,-1027,-581,-325,120,150,-16
2,114325,186,165,1673,-1027,-581,-325,120,150,-16
2,114330,186,165,1673,-1027,-581,-325,120,150,-16
2,114335,187,169,1672,-1025,-577,-330,120,150,-16
2,114340,187,169,1672,-1025,-577,-330,120,150,-16
2,114345,187,169,1672,-1025,-577,-330,120,150,-16
2,114350,187,169,1672,-1025,-577,-330,120,150,-16
2,114355,190,166,1680,-1029,-577,-333,120,150,-16
2,114359,190,166,1680,-1029,-577,-333,120,150,-16
2,114365,190,166,1680,-1029,-577,-333,120,150,-16
2,114369,190,166,1680,-1029,-577,-333,120,150,-16
2,114375,189,166,1675,-1030,-568,-327,120,150,-16
2,114379,189,166,1675,-1030,-568,-327,120,150,-16
2,114384,189,166,1675,-1030,-568,-327,120,150,-16
2,114390,189,166,1675,-1030,-568,-327,120,150,-16
2,114395,181,172,1666,-1026,-572,-323,120,150,-16
2,114400,181,172,1666,-1026,-572,-323,120,150,-16
2,114405,181,172,1666,-1026,-572,-323,120,150,-16
2,114410,181,172,1666,-1026,-572,-323,120,150,-16
2,114415,178,172,1679,-1027,-577,-327,120,150,-16
2,114420,178,172,1679,-1027,-577,-327,120,150,-16
2,114424,178,172,1679,-1027,-577,-327,120,150,-16
2,114428,178,172,1679,-1027,-577,-327,120,150,-16
2,114434,185,169,1678,-1020,-575,-331,121,155,-11
2,114439,185,169,1678,-1020,-575,-331,121,155,-11
2,114443,185,169,1678,-1020,-575,-331,121,155,-11
2,114448,185,169,1678,-1020,-575,-331,121,155,-11
2,114453,189,165,1675,-1020,-571,-328,121,155,-11
2,114457,189,165,1675,-1020,-571,-328,121,155,-11
2,114462,189,165,1675,-1020,-571,-328,121,155,-11
2,114468,189,165,1675,-1020,-571,-328,121,155,-11
2,114472,189,169,1680,-1022,-576,-327,121,155,-11
2,114478,189,169,1680,-1022,-576,-327,121,155,-11
2,114483,189,169,1680,-1022,-576,-327,121,155,-11
2,114488,189,169,1680,-1022,-576,-327,121,155,-11
2,114493,184,170,1681,-1026,-580,-333,121,155,-11
2,114498,184,170,1681,-1026,-580,-333,121,155,-11
2,114503,184,170,1681,-1026,-580,-333,121,155,-11
2,114508,184,170,1681,-1026,-580,-333,121,155,-11
2,114512,184,169,1676,-1024,-580,-340,121,155,-11
2,114518,184,169,1676,-1024,-580,-340,121,155,-11
2,114523,184,169,1676,-1024,-580,-340,121,155,-11
2,114528,184,169,1676,-1024,-580,-340,121,155,-11
2,114533,184,171,1674,-1015,-575,-338,121,155,-11
2,114538,184,171,1674,-1015,-575,-338,121,155,-11
2,114543,184,171,1674,-1015,-575,-338,121,155,-11
2,114547,184,171,1674,-1015,-575,-338,121,155,-11
2,114552,180,167,1670,-1016,-574,-326,118,150,-20
2,114558,180,167,1670,-1016,-574,-326,118,150,-20
2,114563,180,167,1670,-1016,-574,-326,118,150,-20
2,114568,180,167,1670,-1016,-574,-326,118,150,-20
2,114573,181,169,1672,-1020,-574,-323,118,150,-20
2,114578,181,169,1672,-1020,-574,-323,118,150,-20
2,114583,181,169,1672,-1020,-574,-323,118,150,-20
2,114589,181,169,1672,-1020,-574,-323,118,150,-20
2,114594,187,167,1674,-1023,-572,-331,118,150,-20
2,114599,187,167,1674,-1023,-572,-331,118,150,-20
2,114606,187,167,1674,-1023,-572,-331,118,150,-20
2,114612,189,163,1678,-1027,-580,-331,118,150,-20
2,114617,189,163,1678,-1027,-580,-331,118,150,-20
2,114624,189,163,1678,-1027,-580,-331,118,150,-20
2,114629,189,163,1678,-1027,-580,-331,118,150,-20
2,114634,187,169,1673,-1021,-577,-330,118,150,-20
2,114640,187,169,1673,-1021,-577,-330,118,150,-20
2,114646,187,169,1673,-1021,-577,-330,118,150,-20
2,114651,184,172,1673,-1029,-577,-331,118,150,-20
2,114657,184,172,1673,-1029,-577,-331,118,150,-20
2,114662,184,172,1673,-1029,-577,-331,118,150,-20
2,114668,184,172,1673,-1029,-577,-331,118,150,-20
2,114673,183,171,1673,-1030,-576,-330,118,150,-20
2,114679,183,171,1673,-1030,-576,-330,118,150,-20
2,114684,183,171,1673,-1030,-576,-330,118,150,-20
2,114690,183,171,1673,-1030,-576,-330,118,150,-20
2,114695,187,168,1676,-1023,-572,-328,124,156,-22
2,114701,187,168,1676,-1023,-572,-328,124,156,-22
2,114706,187,168,1676,-1023,-572,-328,124,156,-22
2,114711,187,168,1676,-1023,-572,-328,124,156,-22
2,114716,186,165,1673,-1030,-577,-336,124,156,-22
2,114720,186,165,1673,-1030,-577,-336,124,156,-22
2,114725,186,165,1673,-1030,-577,-336,124,156,-22
2,114729,186,165,1673,-1030,-577,-336,124,156,-22
2,114735,187,166,1672,-1028,-576,-329,124,156,-22
2,114740,187,166,1672,-1028,-576,-329,124,156,-22
2,114745,187,166,1672,-1028,-576,-329,124,156,-22
2,114750,187,166,1672,-1028,-576,-329,124,156,-22
2,114755,182,169,1677,-1025,-576,-329,124,156,-22
2,114760,182,169,1677,-1025,-576,-329,124,156,-22
2,114765,182,169,1677,-1025,-576,-329,124,156,-22
2,114770,182,169,1677,-1025,-576,-329,124,156,-22
2,114775,189,170,1678,-1027,-577,-329,124,156,-22
2,114780,189,170,1678,-1027,-577,-329,124,156,-22
2,114784,189,170,1678,-1027,-577,-329,124,156,-22
2,114789,189,170,1678,-1027,-577,-329,124,156,-22
2,114795,190,171,1675,-1025,-577,-332,124,156,-22
2,114799,190,171,1675,-1025,-577,-332,124,156,-22
2,114805,190,171,1675,-1025,-577,-332,124,156,-22
2,114809,190,171,1675,-1025,-577,-332,124,156,-22
2,114814,183,172,1676,-1027,-574,-335,110,146,-16
2,114819,183,172,1676,-1027,-574,-335,110,146,-16
2,114824,183,172,1676,-1027,-574,-335,110,146,-16
2,114829,183,172,1676,-1027,-574,-335,110,146,-16
2,114833,187,169,1677,-1026,-573,-329,110,146,-16
2,114838,187,169,1677,-1026,-573,-329,110,146,-16
2,114843,187,169,1677,-1026,-573,-329,110,146,-16
2,114847,187,169,1677,-1026,-573,-329,110,146,-16
2,114852,187,165,1674,-1034,-576,-331,110,146,-16
2,114857,187,165,1674,-1034,-576,-331,110,146,-16
2,114863,187,165,1674,-1034,-576,-331,110,146,-16
2,114868,187,165,1674,-1034,-576,-331,110,146,-16
2,114872,186,165,1678,-1032,-578,-335,110,146,-16
2,114877,186,165,1678,-1032,-578,-335,110,146,-16
2,114881,186,165,1678,-1032,-578,-335,110,146,-16
2,114886,186,165,1678,-1032,-578,-335,110,146,-16
2,114891,186,165,1678,-1032,-578,-335,110,146,-16
2,114895,180,169,1678,-1032,-577,-324,110,146,-16
2,114900,180,169,1678,-1032,-577,-324,110,146,-16
2,114905,180,169,1678,-1032,-577,-324,110,146,-16
2,114910,180,169,1678,-1032,-577,-324,110,146,-16
2,114915,183,173,1670,-1028,-586,-323,110,146,-16
2,114919,183,173,1670,-1028,-586,-323,110,146,-16
2,114925,183,173,1670,-1028,-586,-323,110,146,-16
2,114929,183,173,1670,-1028,-586,-323,110,146,-16
2,114934,186,171,1678,-1022,-577,-326,110,146,-16
2,114940,186,171,1678,-1022,-577,-326,110,146,-16
2,114945,186,171,1678,-1022,-577,-326,110,146,-16
2,114949,186,171,1678,-1022,-577,-326,110,146,-16
2,114954,188,171,1675,-1021,-580,-323,108,158,-26
2,114958,188,171,1675,-1021,-580,-323,108,158,-26
2,114963,188,171,1675,-1021,-580,-323,108,158,-26
2,114968,188,171,1675,-1021,-580,-323,108,158,-26
2,114973,188,167,1677,-1024,-582,-320,108,158,-26
2,114978,188,167,1677,-1024,-582,-320,108,158,-26
2,114982,188,167,1677,-1024,-582,-320,108,158,-26
2,114988,188,167,1677,-1024,-582,-320,108,158,-26
2,114993,186,166,1675,-1028,-580,-340,108,158,-26
2,114997,186,166,1675,-1028,-580,-340,108,158,-26
2,115003,186,166,1675,-1028,-580,-340,108,158,-26
2,115008,186,166,1675,-1028,-580,-340,108,158,-26
2,115012,182,166,1675,-1026,-578,-339,108,158,-26
2,115017,182,166,1675,-1026,-578,-339,108,158,-26
2,115022,182,166,1675,-1026,-578,-339,108,158,-26
2,115027,182,166,1675,-1026,-578,-339,108,158,-26
2,115032,182,168,1676,-1030,-573,-329,108,158,-26
2,115037,182,168,1676,-1030,-573,-329,108,158,-26
2,115042,182,168,1676,-1030,-573,-329,108,158,-26
2,115047,182,168,1676,-1030,-573,-329,108,158,-26
2,115052,185,173,1680,-1028,-577,-322,108,158,-26
2,115057,185,173,1680,-1028,-577,-322,108,158,-26
2,115063,185,173,1680,-1028,-577,-322,108,158,-26
2,115068,185,173,1680,-1028,-577,-322,108,158,-26
2,115074,183,172,1673,-1030,-579,-321,118,156,-22
2,115079,183,172,1673,-1030,-579,-321,118,156,-22
2,115084,183,172,1673,-1030,-579,-321,118,156,-22
2,115089,183,172,1673,-1030,-579,-321,118,156,-22
2,115094,188,169,1674,-1030,-583,-322,118,156,-22
2,115098,188,169,1674,-1030,-583,-322,118,156,-22
2,115103,188,169,1674,-1030,-583,-322,118,156,-22
2,115108,188,169,1674,-1030,-583,-322,118,156,-22
2,115113,190,167,1669,-1028,-581,-325,118,156,-22
2,115119,190,167,1669,-1028,-581,-325,118,156,-22
2,115124,190,167,1669,-1028,-581,-325,118,156,-22
2,115130,190,167,1669,-1028,-581,-325,118,156,-22
2,115135,186,167,1675,-1023,-577,-326,118,156,-22
2,115140,186,167,1675,-1023,-577,-326,118,156,-22
2,115145,186,167,1675,-1023,-577,-326,118,156,-22
2,115150,186,167,1675,-1023,-577,-326,118,156,-22
2,115155,186,166,1669,-1023,-579,-330,118,156,-22
2,115160,186,166,1669,-1023,-579,-330,118,156,-22
2,115165,186,166,1669,-1023,-579,-330,118,156,-22
2,115170,186,166,1669,-1023,-579,-330,118,156,-22
2,115175,185,169,1673,-1038,-583,-336,118,156,-22
2,115180,185,169,1673,-1038,-583,-336,118,156,-22
2,115185,185,169,1673,-1038,-583,-336,118,156,-22
2,115189,185,169,1673,-1038,-583,-336,118,156,-22
2,115194,190,170,1676,-1031,-583,-338,118,148,-24
2,115200,190,170,1676,-1031,-583,-338,118,148,-24
2,115204,190,170,1676,-1031,-583,-338,118,148,-24
2,115209,190,170,1676,-1031,-583,-338,118,148,-24
2,115214,190,166,1673,-1029,-581,-323,118,148,-24
2,115219,190,166,1673,-1029,-581,-323,118,148,-24
2,115224,190,166,1673,-1029,-581,-323,118,148,-24
2,115229,190,166,1673,-1029,-581,-323,118,148,-24
2,115234,185,171,1672,-1023,-574,-323,118,148,-24
2,115238,185,171,1672,-1023,-574,-323,118,148,-24
2,115244,185,171,1672,-1023,-574,-323,118,148,-24
2,115249,185,171,1672,-1023,-574,-323,118,148,-24
2,115255,184,165,1675,-1023,-578,-322,118,148,-24
2,115260,184,165,1675,-1023,-578,-322,118,148,-24
2,115266,184,165,1675,-1023,-578,-322,118,148,-24
2,115271,184,165,1675,-1023,-578,-322,118,148,-24
2,115277,185,162,1674,-1027,-575,-327,118,148,-24
2,115282,185,162,1674,-1027,-575,-327,118,148,-24
2,115288,185,162,1674,-1027,-575,-327,118,148,-24
2,115293,185,167,1674,-1035,-580,-327,118,148,-24
2,115298,185,167,1674,-1035,-580,-327,118,148,-24
2,115303,185,167,1674,-1035,-580,-327,118,148,-24
2,115308,185,167,1674,-1035,-580,-327,118,148,-24
2,115313,188,171,1674,-1028,-576,-324,118,148,-24
2,115317,188,171,1674,-1028,-576,-324,118,148,-24
2,115322,188,171,1674,-1028,-576,-324,118,148,-24
2,115328,188,171,1674,-1028,-576,-324,118,148,-24
2,115333,189,170,1671,-1022,-576,-327,120,152,-24
2,115338,189,170,1671,-1022,-576,-327,120,152,-24
2,115342,189,170,1671,-1022,-576,-327,120,152,-24
2,115347,189,170,1671,-1022,-576,-327,120,152,-24
2,115352,189,170,1671,-1022,-576,-327,120,152,-24
2,115357,187,167,1674,-1027,-580,-329,120,152,-24
2,115362,187,167,1674,-1027,-580,-329,120,152,-24
2,115367,187,167,1674,-1027,-580,-329,120,152,-24
2,115373,186,169,1674,-1027,-580,-329,120,152,-24
2,115377,186,169,1674,-1027,-580,-329,120,152,-24
2,115382,186,169,1674,-1027,-580,-329,120,152,-24
2,115387,186,169,1674,-1027,-580,-329,120,152,-24
2,115392,186,169,1674,-1027,-580,-329,120,152,-24
2,115396,187,163,1676,-1031,-578,-331,120,152,-24
2,115401,187,163,1676,-1031,-578,-331,120,152,-24
2,115406,187,163,1676,-1031,-578,-331,120,152,-24
2,115411,187,163,1676,-1031,-578,-331,120,152,-24
2,115417,187,170,1671,-1027,-572,-326,120,152,-24
2,115422,187,170,1671,-1027,-572,-326,120,152,-24
2,115427,187,170,1671,-1027,-572,-326,120,152,-24
2,115432,187,170,1671,-1027,-572,-326,120,152,-24
2,115436,189,169,1670,-1020,-574,-325,120,152,-24
2,115441,189,169,1670,-1020,-574,-325,120,152,-24
2,115446,189,169,1670,-1020,-574,-325,120,152,-24
2,115451,189,169,1670,-1020,-574,-325,120,152,-24
2,115457,186,171,1673,-1028,-577,-330,118,158,-20
2,115461,186,171,1673,-1028,-577,-330,118,158,-20
2,115466,186,171,1673,-1028,-577,-330,118,158,-20
2,115471,186,171,1673,-1028,-577,-330,118,158,-20
2,115476,186,169,1675,-1023,-579,-332,118,158,-20
2,115480,186,169,1675,-1023,-579,-332,118,158,-20
2,115484,186,169,1675,-1023,-579,-332,118,158,-20
2,115489,186,169,1675,-1023,-579,-332,118,158,-20
2,115495,186,169,1675,-1023,-579,-332,118,158,-20
2,115500,186,169,1675,-1023,-579,-332,118,158,-20
2,115505,186,169,1675,-1023,-579,-332,118,158,-20
2,115510,186,169,1675,-1023,-579,-332,118,158,-20
2,115515,187,171,1674,-1022,-568,-332,118,158,-20
2,115520,187,171,1674,-1022,-568,-332,118,158,-20
2,115524,187,171,1674,-1022,-568,-332,118,158,-20
2,115529,187,171,1674,-1022,-568,-332,118,158,-20
2,115534,183,164,1672,-1017,-574,-331,118,158,-20
2,115539,183,164,1672,-1017,-574,-331,118,158,-20
2,115545,183,164,1672,-1017,-574,-331,118,158,-20
2,115550,183,164,1672,-1017,-574,-331,118,158,-20
2,115555,183,164,1676,-1019,-576,-335,118,158,-20
2,115560,183,164,1676,-1019,-576,-335,118,158,-20
2,115564,183,164,1676,-1019,-576,-335,118,158,-20
2,115568,183,164,1676,-1019,-576,-335,118,158,-20
2,115573,180,172,1668,-1021,-573,-334,118,158,-20
2,115578,180,172,1668,-1021,-573,-334,118,158,-20
2,115582,180,172,1668,-1021,-573,-334,118,158,-20
2,115588,180,172,1668,-1021,-573,-334,118,158,-20
2,115593,184,174,1675,-1026,-576,-331,122,154,-20
2,115598,184,174,1675,-1026,-576,-331,122,154,-20
2,115603,184,174,1675,-1026,-576,-331,122,154,-20
2,115607,184,174,1675,-1026,-576,-331,122,154,-20
2,115612,189,170,1678,-1032,-575,-322,122,154,-20
2,115616,189,170,1678,-1032,-575,-322,122,154,-20
2,115621,189,170,1678,-1032,-575,-322,122,154,-20
2,115625,189,170,1678,-1032,-575,-322,122,154,-20
2,115630,189,170,1678,-1032,-575,-322,122,154,-20
2,115635,190,166,1676,-1036,-582,-329,122,154,-20
2,115640,190,166,1676,-1036,-582,-329,122,154,-20
2,115645,190,166,1676,-1036,-582,-329,122,154,-20
2,115650,190,166,1676,-1036,-582,-329,122,154,-20
2,115655,185,168,1678,-1036,-579,-326,122,154,-20
2,115659,185,168,1678,-1036,-579,-326,122,154,-20
2,115664,185,168,1678,-1036,-579,-326,122,154,-20
2,115670,185,168,1678,-1036,-579,-326,122,154,-20
2,115674,180,166,1675,-1022,-571,-325,122,154,-20
2,115679,180,166,1675,-1022,-571,-325,122,154,-20
2,115684,180,166,1675,-1022,-571,-325,122,154,-20
2,115689,180,166,1675,-1022,-571,-325,122,154,-20
2,115694,184,169,1674,-1035,-577,-327,122,154,-20
2,115698,184,169,1674,-1035,-577,-327,122,154,-20
2,115703,184,169,1674,-1035,-577,-327,122,154,-20
2,115708,184,169,1674,-1035,-577,-327,122,154,-20
2,115713,184,170,1679,-1036,-581,-328,120,150,-18
2,115718,184,170,1679,-1036,-581,-328,120,150,-18
2,115723,184,170,1679,-1036,-581,-328,120,150,-18
2,115728,184,170,1679,-1036,-581,-328,120,150,-18
2,115733,188,172,1674,-1031,-578,-319,120,150,-18
2,115738,188,172,1674,-1031,-578,-319,120,150,-18
2,115742,188,172,1674,-1031,-578,-319,120,150,-18
2,115747,188,172,1674,-1031,-578,-319,120,150,-18
2,115752,188,168,1678,-1026,-574,-323,120,150,-18
2,115758,188,168,1678,-1026,-574,-323,120,150,-18
2,115763,188,168,1678,-1026,-574,-323,120,150,-18
2,115768,188,168,1678,-1026,-574,-323,120,150,-18
2,115773,182,170,1673,-1017,-569,-322,120,150,-18
2,115778,182,170,1673,-1017,-569,-322,120,150,-18
2,115783,182,170,1673,-1017,-569,-322,120,150,-18
2,115787,182,170,1673,-1017,-569,-322,120,150,-18
2,115792,182,170,1673,-1017,-569,-322,120,150,-18
2,115796,184,164,1679,-1022,-571,-331,120,150,-18
2,115802,184,164,1679,-1022,-571,-331,120,150,-18
2,115807,184,164,1679,-1022,-571,-331,120,150,-18
2,115812,184,164,1679,-1022,-571,-331,120,150,-18
2,115817,180,167,1672,-1024,-575,-330,120,150,-18
2,115822,180,167,1672,-1024,-575,-330,120,150,-18
2,115827,180,167,1672,-1024,-575,-330,120,150,-18
2,115832,180,167,1672,-1024,-575,-330,120,150,-18
2,115837,182,173,1675,-1017,-582,-327,115,147,-15
2,115843,182,173,1675,-1017,-582,-327,115,147,-15
2,115848,182,173,1675,-1017,-582,-327,115,147,-15
2,115854,186,168,1674,-1021,-584,-328,115,147,-15
2,115859,186,168,1674,-1021,-584,-328,115,147,-15
2,115864,186,168,1674,-1021,-584,-328,115,147,-15
2,115869,186,168,1674,-1021,-584,-328,115,147,-15
2,115874,184,169,1674,-1023,-570,-332,115,147,-15
2,115879,184,169,1674,-1023,-570,-332,115,147,-15
2,115885,184,169,1674,-1023,-570,-332,115,147,-15
2,115890,184,169,1674,-1023,-570,-332,115,147,-15
2,115895,185,169,1676,-1016,-579,-329,115,147,-15
2,115899,185,169,1676,-1016,-579,-329,115,147,-15
2,115904,185,169,1676,-1016,-579,-329,115,147,-15
2,115909,185,169,1676,-1016,-579,-329,115,147,-15
2,115914,182,167,1683,-1028,-578,-328,115,147,-15
2,115918,182,167,1683,-1028,-578,-328,115,147,-15
2,115923,182,167,1683,-1028,-578,-328,115,147,-15
2,115928,182,167,1683,-1028,-578,-328,115,147,-15
2,115933,182,169,1671,-1034,-577,-322,115,147,-15
2,115938,182,169,1671,-1034,-577,-322,115,147,-15
2,115943,182,169,1671,-1034,-577,-322,115,147,-15
2,115948,182,169,1671,-1034,-577,-322,115,147,-15
2,115953,185,169,1671,-1026,-575,-331,115,147,-15
2,115958,185,169,1671,-1026,-575,-331,115,147,-15
2,115962,185,169,1671,-1026,-575,-331,115,147,-15
2,115968,185,169,1671,-1026,-575,-331,115,147,-15
2,115973,188,169,1680,-1028,-578,-333,115,147,-15
2,115978,188,169,1680,-1028,-578,-333,116,152,-22
2,115983,188,169,1680,-1028,-578,-333,116,152,-22
2,115988,188,169,1680,-1028,-578,-333,116,152,-22
2,115993,188,173,1670,-1032,-573,-329,116,152,-22
2,115998,188,173,1670,-1032,-573,-329,116,152,-22
2,116003,188,173,1670,-1032,-573,-329,116,152,-22
2,116008,188,173,1670,-1032,-573,-329,116,152,-22
2,116014,185,167,1679,-1027,-573,-326,116,152,-22
2,116019,185,167,1679,-1027,-573,-326,116,152,-22
2,116024,185,167,1679,-1027,-573,-326,116,152,-22
2,116029,185,167,1679,-1027,-573,-326,116,152,-22
2,116034,184,168,1675,-1028,-577,-325,116,152,-22
2,116039,184,168,1675,-1028,-577,-325,116,152,-22
2,116044,184,168,1675,-1028,-577,-325,116,152,-22
2,116049,184,168,1675,-1028,-577,-325,116,152,-22
2,116054,186,166,1669,-1029,-576,-322,116,152,-22
2,116059,186,166,1669,-1029,-576,-322,116,152,-22
2,116064,186,166,1669,-1029,-576,-322,116,152,-22
2,116069,186,166,1669,-1029,-576,-322,116,152,-22
2,116074,187,168,1674,-1035,-578,-322,116,152,-22
2,116079,187,168,1674,-1035,-578,-322,116,152,-22
2,116085,187,168,1674,-1035,-578,-322,116,152,-22
2,116091,187,168,1674,-1035,-578,-322,116,152,-22
2,116097,187,169,1676,-1028,-574,-330,119,149,-15
2,116104,187,169,1676,-1028,-574,-330,119,149,-15
2,116110,187,169,1676,-1028,-574,-330,119,149,-15
2,116115,188,174,1673,-1023,-581,-325,119,149,-15
2,116120,188,174,1673,-1023,-581,-325,119,149,-15
2,116125,188,174,1673,-1023,-581,-325,119,149,-15
2,116131,188,174,1673,-1023,-581,-325,119,149,-15
2,116136,189,171,1677,-1031,-576,-328,119,149,-15
2,116142,189,171,1677,-1031,-576,-328,119,149,-15
2,116147,189,171,1677,-1031,-576,-328,119,149,-15
2,116153,189,171,1677,-1031,-576,-328,119,149,-15
2,116159,183,170,1671,-1026,-575,-333,119,149,-15
2,116164,183,170,1671,-1026,-575,-333,119,149,-15
2,116169,183,170,1671,-1026,-575,-333,119,149,-15
2,116174,184,165,1674,-1023,-577,-328,119,149,-15
2,116179,184,165,1674,-1023,-577,-328,119,149,-15
2,116185,184,165,1674,-1023,-577,-328,119,149,-15
2,116190,184,165,1674,-1023,-577,-328,119,149,-15
2,116195,183,168,1669,-1023,-570,-327,119,149,-15
2,116200,183,168,1669,-1023,-570,-327,119,149,-15
2,116205,183,168,1669,-1023,-570,-327,119,149,-15
2,116210,183,168,1669,-1023,-570,-327,119,149,-15
2,116214,187,167,1669,-1026,-570,-320,119,149,-15
2,116219,187,167,1669,-1026,-570,-320,119,149,-15
2,116226,187,167,1669,-1026,-570,-320,119,149,-15
2,116233,187,167,1669,-1026,-570,-320,119,149,-15
2,116238,190,167,1677,-1021,-570,-322,124,154,-12
2,116243,190,167,1677,-1021,-570,-322,124,154,-12
2,116248,190,167,1677,-1021,-570,-322,124,154,-12
2,116252,190,167,1677,-1021,-570,-322,124,154,-12
2,116257,187,170,1667,-1019,-578,-324,124,154,-12
2,116262,187,170,1667,-1019,-578,-324,124,154,-12
2,116268,187,170,1667,-1019,-578,-324,124,154,-12
2,116273,187,170,1667,-1019,-578,-324,124,154,-12
2,116277,186,170,1675,-1033,-573,-330,124,154,-12
2,116281,186,170,1675,-1033,-573,-330,124,154,-12
2,116286,186,170,1675,-1033,-573,-330,124,154,-12
2,116291,186,170,1675,-1033,-573,-330,124,154,-12
2,116296,186,170,1668,-1029,-573,-329,124,154,-12
2,116301,186,170,1668,-1029,-573,-329,124,154,-12
2,116306,186,170,1668,-1029,-573,-329,124,154,-12
2,116311,186,170,1668,-1029,-573,-329,124,154,-12
2,116316,190,167,1676,-1025,-576,-328,124,154,-12
2,116321,190,167,1676,-1025,-576,-328,124,154,-12
