imu,time,ax,ay,az,gx,gy,gz,mx,my,mz
2,199628,127,2235,-432,-1017,-577,-333,-166,186,-452
2,199636,127,2235,-432,-1017,-577,-333,-166,186,-452
2,199644,125,2234,-427,-1020,-577,-327,-166,186,-452
2,199652,125,2234,-427,-1020,-577,-327,-166,186,-452
2,199660,125,2234,-427,-1020,-577,-327,-166,186,-452
2,199667,126,2235,-427,-1030,-583,-327,-166,186,-452
2,199673,126,2235,-427,-1030,-583,-327,-166,186,-452
2,199681,126,2235,-427,-1030,-583,-327,-166,186,-452
2,199686,124,2233,-424,-1026,-583,-328,-166,186,-452
2,199693,124,2233,-424,-1026,-583,-328,-166,186,-452
2,199699,124,2233,-424,-1026,-583,-328,-166,186,-452
2,199704,129,2236,-424,-1023,-581,-328,-166,186,-452
2,199710,129,2236,-424,-1023,-581,-328,-166,186,-452
2,199716,129,2236,-424,-1023,-581,-328,-166,186,-452
2,199724,126,2237,-425,-1017,-578,-324,-166,186,-452
2,199729,126,2237,-425,-1017,-578,-324,-166,186,-452
2,199735,126,2237,-425,-1017,-578,-324,-166,186,-452
2,199741,126,2237,-425,-1017,-578,-324,-166,186,-452
2,199746,127,2235,-425,-1016,-573,-323,-166,186,-452
2,199751,127,2235,-425,-1016,-573,-323,-166,186,-452
2,199757,127,2235,-425,-1016,-573,-323,-166,186,-452
2,199763,125,2234,-423,-1025,-574,-322,-170,190,-454
2,199769,125,2234,-423,-1025,-574,-322,-170,190,-454
2,199775,125,2234,-423,-1025,-574,-322,-170,190,-454
2,199780,125,2234,-423,-1025,-574,-322,-170,190,-454
2,199785,125,2235,-425,-1019,-578,-328,-170,190,-454
2,199791,125,2235,-425,-1019,-578,-328,-170,190,-454
2,199797,125,2235,-425,-1019,-578,-328,-170,190,-454
2,199802,127,2236,-431,-1028,-572,-325,-170,190,-454
2,199808,127,2236,-431,-1028,-572,-325,-170,190,-454
2,199814,127,2236,-431,-1028,-572,-325,-170,190,-454
2,199819,127,2236,-431,-1028,-572,-325,-170,190,-454
2,199824,126,2237,-423,-1022,-575,-326,-170,190,-454
2,199829,126,2237,-423,-1022,-575,-326,-170,190,-454
2,199834,126,2237,-423,-1022,-575,-326,-170,190,-454
2,199840,126,2237,-423,-1022,-575,-326,-170,190,-454
2,199845,126,2238,-423,-1025,-580,-324,-170,190,-454
2,199852,126,2238,-423,-1025,-580,-324,-170,190,-454
2,199857,126,2238,-423,-1025,-580,-324,-170,190,-454
2,199863,126,2236,-431,-1020,-577,-328,-170,190,-454
2,199868,126,2236,-431,-1020,-577,-328,-170,190,-454
2,199873,126,2236,-431,-1020,-577,-328,-170,190,-454
2,199878,126,2236,-431,-1020,-577,-328,-170,190,-454
2,199884,125,2237,-421,-1015,-577,-325,-164,184,-444
2,199889,125,2237,-421,-1015,-577,-325,-164,184,-444
2,199896,125,2237,-421,-1015,-577,-325,-164,184,-444
2,199901,125,2237,-421,-1015,-577,-325,-164,184,-444
2,199906,127,2237,-422,-1023,-578,-325,-164,184,-444
2,199912,127,2237,-422,-1023,-578,-325,-164,184,-444
2,199917,127,2237,-422,-1023,-578,-325,-164,184,-444
2,199923,127,2237,-422,-1023,-578,-325,-164,184,-444
2,199929,127,2237,-422,-1023,-578,-325,-164,184,-444
2,199934,127,2237,-422,-1023,-578,-325,-164,184,-444
2,199941,127,2237,-422,-1023,-578,-325,-164,184,-444
2,199946,126,2234,-429,-1023,-577,-322,-164,184,-444
2,199951,126,2234,-429,-1023,-577,-322,-164,184,-444
2,199956,126,2234,-429,-1023,-577,-322,-164,184,-444
2,199962,126,2234,-429,-1023,-577,-322,-164,184,-444
2,199967,128,2234,-423,-1017,-582,-326,-164,184,-444
2,199973,128,2234,-423,-1017,-582,-326,-164,184,-444
2,199979,128,2234,-423,-1017,-582,-326,-164,184,-444
2,199985,127,2236,-424,-1022,-580,-327,-164,184,-444
2,199990,127,2236,-424,-1022,-580,-327,-164,184,-444
2,199996,127,2236,-424,-1022,-580,-327,-164,184,-444
2,200001,127,2236,-424,-1022,-580,-327,-164,184,-444
2,200007,125,2237,-422,-1022,-582,-327,-170,188,-452
2,200012,125,2237,-422,-1022,-582,-327,-170,188,-452
2,200018,125,2237,-422,-1022,-582,-327,-170,188,-452
2,200024,127,2237,-428,-1021,-575,-325,-170,188,-452
2,200030,127,2237,-428,-1021,-575,-325,-170,188,-452
2,200035,127,2237,-428,-1021,-575,-325,-170,188,-452
2,200040,127,2237,-428,-1021,-575,-325,-170,188,-452
2,200046,124,2234,-434,-1019,-574,-322,-170,188,-452
2,200052,124,2234,-434,-1019,-574,-322,-170,188,-452
2,200057,124,2234,-434,-1019,-574,-322,-170,188,-452
2,200062,124,2235,-421,-1030,-578,-330,-170,188,-452
2,200068,124,2235,-421,-1030,-578,-330,-170,188,-452
2,200073,124,2235,-421,-1030,-578,-330,-170,188,-452
2,200079,124,2235,-421,-1030,-578,-330,-170,188,-452
2,200084,128,2236,-430,-1021,-582,-321,-170,188,-452
2,200089,128,2236,-430,-1021,-582,-321,-170,188,-452
2,200095,128,2236,-430,-1021,-582,-321,-170,188,-452
2,200100,128,2236,-430,-1021,-582,-321,-170,188,-452
2,200107,125,2236,-428,-1022,-576,-326,-170,188,-452
2,200112,125,2236,-428,-1022,-576,-326,-170,188,-452
2,200117,125,2236,-428,-1022,-576,-326,-170,188,-452
2,200122,125,2236,-428,-1022,-576,-326,-170,188,-452
2,200127,126,2234,-425,-1026,-579,-330,-170,188,-452
2,200133,126,2234,-425,-1026,-579,-330,-170,188,-452
2,200138,126,2234,-425,-1026,-579,-330,-170,188,-452
2,200143,125,2235,-425,-1025,-581,-328,-172,194,-452
2,200150,125,2235,-425,-1025,-581,-328,-172,194,-452
2,200155,125,2235,-425,-1025,-581,-328,-172,194,-452
2,200161,125,2235,-425,-1025,-581,-328,-172,194,-452
2,200167,130,2236,-421,-1028,-578,-331,-172,194,-452
2,200172,130,2236,-421,-1028,-578,-331,-172,194,-452
2,200177,130,2236,-421,-1028,-578,-331,-172,194,-452
2,200182,125,2233,-430,-1021,-575,-327,-172,194,-452
2,200188,125,2233,-430,-1021,-575,-327,-172,194,-452
2,200194,125,2233,-430,-1021,-575,-327,-172,194,-452
2,200199,125,2233,-430,-1021,-575,-327,-172,194,-452
2,200205,126,2236,-424,-1031,-580,-326,-172,194,-452
2,200211,126,2236,-424,-1031,-580,-326,-172,194,-452
2,200216,126,2236,-424,-1031,-580,-326,-172,194,-452
2,200221,126,2236,-424,-1031,-580,-326,-172,194,-452
2,200226,125,2237,-428,-1027,-579,-334,-172,194,-452
2,200232,125,2237,-428,-1027,-579,-334,-172,194,-452
2,200238,125,2237,-428,-1027,-579,-334,-172,194,-452
2,200243,128,2236,-424,-1019,-580,-331,-172,194,-452
2,200249,128,2236,-424,-1019,-580,-331,-172,194,-452
2,200255,128,2236,-424,-1019,-580,-331,-172,194,-452
2,200260,128,2236,-424,-1019,-580,-331,-172,194,-452
2,200266,127,2238,-428,-1011,-569,-321,-175,191,-457
2,200271,127,2238,-428,-1011,-569,-321,-175,191,-457
2,200278,127,2238,-428,-1011,-569,-321,-175,191,-457
2,200282,127,2238,-428,-1011,-569,-321,-175,191,-457
2,200287,126,2236,-425,-1016,-573,-326,-175,191,-457
2,200292,126,2236,-425,-1016,-573,-326,-175,191,-457
2,200296,126,2236,-425,-1016,-573,-326,-175,191,-457
2,200301,126,2236,-425,-1016,-573,-326,-175,191,-457
2,200306,128,2234,-426,-1017,-582,-322,-175,191,-457
2,200311,128,2234,-426,-1017,-582,-322,-175,191,-457
2,200317,128,2234,-426,-1017,-582,-322,-175,191,-457
2,200323,128,2234,-426,-1017,-582,-322,-175,191,-457
2,200328,126,2239,-428,-1018,-577,-322,-175,191,-457
2,200333,126,2239,-428,-1018,-577,-322,-175,191,-457
2,200339,126,2239,-428,-1018,-577,-322,-175,191,-457
2,200344,126,2234,-425,-1026,-577,-326,-175,191,-457
2,200349,126,2234,-425,-1026,-577,-326,-175,191,-457
2,200355,126,2234,-425,-1026,-577,-326,-175,191,-457
2,200360,126,2234,-425,-1026,-577,-326,-175,191,-457
2,200366,127,2232,-423,-1026,-576,-328,-175,191,-457
2,200372,127,2232,-423,-1026,-576,-328,-175,191,-457
2,200377,127,2232,-423,-1026,-576,-328,-175,191,-457
2,200382,127,2232,-423,-1026,-576,-328,-175,191,-457
2,200388,125,2235,-424,-1019,-575,-334,-175,191,-457
2,200393,125,2235,-424,-1019,-575,-334,-175,191,-457
2,200398,125,2235,-424,-1019,-575,-334,-175,191,-457
2,200404,124,2235,-427,-1015,-576,-325,-171,191,-457
2,200409,124,2235,-427,-1015,-576,-325,-171,191,-457
2,200415,124,2235,-427,-1015,-576,-325,-171,191,-457
2,200420,124,2235,-427,-1015,-576,-325,-171,191,-457
2,200425,125,2234,-428,-1025,-576,-321,-171,191,-457
2,200431,125,2234,-428,-1025,-576,-321,-171,191,-457
2,200436,125,2234,-428,-1025,-576,-321,-171,191,-457
2,200441,125,2234,-428,-1025,-576,-321,-171,191,-457
2,200446,127,2235,-429,-1023,-579,-328,-171,191,-457
2,200453,127,2235,-429,-1023,-579,-328,-171,191,-457
2,200458,127,2235,-429,-1023,-579,-328,-171,191,-457
2,200463,127,2235,-429,-1023,-579,-328,-171,191,-457
2,200468,126,2236,-428,-1017,-571,-332,-171,191,-457
2,200473,126,2236,-428,-1017,-571,-332,-171,191,-457
2,200479,126,2236,-428,-1017,-571,-332,-171,191,-457
2,200484,125,2234,-423,-1024,-577,-330,-171,191,-457
2,200491,125,2234,-423,-1024,-577,-330,-171,191,-457
2,200496,125,2234,-423,-1024,-577,-330,-171,191,-457
2,200501,125,2234,-423,-1024,-577,-330,-171,191,-457
2,200506,126,2235,-424,-1020,-573,-329,-171,191,-457
2,200512,126,2235,-424,-1020,-573,-329,-171,191,-457
2,200517,126,2235,-424,-1020,-573,-329,-171,191,-457
2,200522,126,2235,-424,-1020,-573,-329,-171,191,-457
2,200528,125,2237,-420,-1035,-586,-336,-170,194,-452
2,200535,125,2237,-420,-1035,-586,-336,-170,194,-452
2,200540,125,2237,-420,-1035,-586,-336,-170,194,-452
2,200546,125,2231,-421,-1025,-582,-335,-170,194,-452
2,200551,125,2231,-421,-1025,-582,-335,-170,194,-452
2,200557,125,2231,-421,-1025,-582,-335,-170,194,-452
2,200562,125,2231,-421,-1025,-582,-335,-170,194,-452
2,200568,126,2236,-427,-1016,-585,-330,-170,194,-452
2,200573,126,2236,-427,-1016,-585,-330,-170,194,-452
2,200579,126,2236,-427,-1016,-585,-330,-170,194,-452
2,200584,128,2234,-426,-1015,-578,-327,-170,194,-452
2,200589,128,2234,-426,-1015,-578,-327,-170,194,-452
2,200594,128,2234,-426,-1015,-578,-327,-170,194,-452
2,200600,128,2234,-426,-1015,-578,-327,-170,194,-452
2,200604,128,2235,-428,-1025,-580,-327,-170,194,-452
2,200610,128,2235,-428,-1025,-580,-327,-170,194,-452
2,200615,128,2235,-428,-1025,-580,-327,-170,194,-452
2,200621,128,2235,-428,-1025,-580,-327,-170,194,-452
2,200626,127,2235,-428,-1025,-577,-328,-170,194,-452
2,200632,127,2235,-428,-1025,-577,-328,-170,194,-452
2,200637,127,2235,-428,-1025,-577,-328,-170,194,-452
2,200643,127,2235,-428,-1025,-577,-328,-170,194,-452
2,200648,128,2233,-426,-1029,-587,-320,-168,190,-456
2,200654,128,2233,-426,-1029,-587,-320,-168,190,-456
2,200659,128,2233,-426,-1029,-587,-320,-168,190,-456
2,200666,127,2235,-426,-1023,-584,-325,-168,190,-456
2,200672,127,2235,-426,-1023,-584,-325,-168,190,-456
2,200677,127,2235,-426,-1023,-584,-325,-168,190,-456
2,200682,127,2235,-426,-1023,-584,-325,-168,190,-456
2,200688,127,2235,-425,-1023,-574,-327,-168,190,-456
2,200693,127,2235,-425,-1023,-574,-327,-168,190,-456
2,200699,127,2235,-425,-1023,-574,-327,-168,190,-456
2,200705,127,2234,-428,-1023,-572,-327,-168,190,-456
2,200710,127,2234,-428,-1023,-572,-327,-168,190,-456
2,200716,127,2234,-428,-1023,-572,-327,-168,190,-456
2,200721,127,2234,-428,-1023,-572,-327,-168,190,-456
2,200726,127,2236,-423,-1016,-576,-327,-168,190,-456
2,200731,127,2236,-423,-1016,-576,-327,-168,190,-456
2,200737,127,2236,-423,-1016,-576,-327,-168,190,-456
2,200742,127,2236,-423,-1016,-576,-327,-168,190,-456
2,200748,128,2235,-433,-1017,-575,-324,-168,190,-456
2,200754,128,2235,-433,-1017,-575,-324,-168,190,-456
2,200759,128,2235,-433,-1017,-575,-324,-168,190,-456
2,200764,130,2235,-431,-1026,-574,-326,-168,190,-456
2,200770,130,2235,-431,-1026,-574,-326,-168,190,-456
2,200775,130,2235,-431,-1026,-574,-326,-168,190,-456
2,200781,130,2235,-431,-1026,-574,-326,-168,190,-456
2,200786,132,2235,-429,-1026,-574,-320,-164,186,-456
2,200792,132,2235,-429,-1026,-574,-320,-164,186,-456
2,200798,132,2235,-429,-1026,-574,-320,-164,186,-456
2,200803,132,2235,-429,-1026,-574,-320,-164,186,-456
2,200808,129,2233,-427,-1026,-572,-329,-164,186,-456
2,200815,129,2233,-427,-1026,-572,-329,-164,186,-456
2,200820,129,2233,-427,-1026,-572,-329,-164,186,-456
2,200825,128,2237,-425,-1028,-572,-332,-164,186,-456
2,200832,128,2237,-425,-1028,-572,-332,-164,186,-456
2,200837,128,2237,-425,-1028,-572,-332,-164,186,-456
2,200843,128,2237,-425,-1028,-572,-332,-164,186,-456
2,200848,125,2235,-429,-1018,-576,-327,-164,186,-456
2,200853,125,2235,-429,-1018,-576,-327,-164,186,-456
2,200859,125,2235,-429,-1018,-576,-327,-164,186,-456
2,200864,126,2235,-423,-1025,-587,-327,-164,186,-456
2,200869,126,2235,-423,-1025,-587,-327,-164,186,-456
2,200876,126,2235,-423,-1025,-587,-327,-164,186,-456
2,200881,126,2235,-423,-1025,-587,-327,-164,186,-456
2,200887,128,2235,-426,-1023,-577,-331,-164,186,-456
2,200892,128,2235,-426,-1023,-577,-331,-164,186,-456
2,200897,128,2235,-426,-1023,-577,-331,-164,186,-456
2,200903,128,2235,-426,-1023,-577,-331,-164,186,-456
2,200908,127,2238,-426,-1024,-568,-326,-163,197,-451
2,200914,127,2238,-426,-1024,-568,-326,-163,197,-451
2,200920,127,2238,-426,-1024,-568,-326,-163,197,-451
2,200926,128,2235,-422,-1018,-571,-329,-163,197,-451
2,200931,128,2235,-422,-1018,-571,-329,-163,197,-451
2,200936,128,2235,-422,-1018,-571,-329,-163,197,-451
2,200941,128,2235,-422,-1018,-571,-329,-163,197,-451
2,200946,124,2235,-432,-1025,-576,-330,-163,197,-451
2,200952,124,2235,-432,-1025,-576,-330,-163,197,-451
2,200958,124,2235,-432,-1025,-576,-330,-163,197,-451
2,200964,124,2235,-432,-1023,-576,-319,-163,197,-451
2,200970,124,2235,-432,-1023,-576,-319,-163,197,-451
2,200975,124,2235,-432,-1023,-576,-319,-163,197,-451
2,200980,124,2235,-432,-1023,-576,-319,-163,197,-451
2,200986,125,2235,-431,-1022,-579,-324,-163,197,-451
2,200990,125,2235,-431,-1022,-579,-324,-163,197,-451
2,200996,125,2235,-431,-1022,-579,-324,-163,197,-451
2,201001,125,2235,-431,-1022,-579,-324,-163,197,-451
2,201007,129,2235,-428,-1020,-574,-323,-163,197,-451
2,201013,129,2235,-428,-1020,-574,-323,-163,197,-451
2,201018,129,2235,-428,-1020,-574,-323,-163,197,-451
2,201023,129,2235,-428,-1020,-574,-323,-163,197,-451
2,201029,126,2235,-422,-1020,-577,-327,-163,197,-451
2,201034,126,2235,-422,-1020,-577,-327,-163,197,-451
2,201039,126,2235,-422,-1020,-577,-327,-163,197,-451
2,201044,125,2238,-424,-1026,-576,-335,-170,192,-456
2,201051,125,2238,-424,-1026,-576,-335,-170,192,-456
2,201056,125,2238,-424,-1026,-576,-335,-170,192,-456
2,201061,125,2238,-424,-1026,-576,-335,-170,192,-456
2,201067,124,2238,-422,-1027,-581,-329,-170,192,-456
2,201072,124,2238,-422,-1027,-581,-329,-170,192,-456
2,201078,124,2238,-422,-1027,-581,-329,-170,192,-456
2,201083,124,2238,-422,-1027,-581,-329,-170,192,-456
2,201089,126,2235,-425,-1027,-585,-322,-170,192,-456
2,201095,126,2235,-425,-1027,-585,-322,-170,192,-456
2,201100,126,2235,-425,-1027,-585,-322,-170,192,-456
2,201105,126,2234,-427,-1026,-576,-327,-170,192,-456
2,201111,126,2234,-427,-1026,-576,-327,-170,192,-456
2,201116,126,2234,-427,-1026,-576,-327,-170,192,-456
2,201122,126,2234,-427,-1026,-576,-327,-170,192,-456
2,201127,127,2234,-424,-1028,-574,-322,-170,192,-456
2,201133,127,2234,-424,-1028,-574,-322,-170,192,-456
2,201138,127,2234,-424,-1028,-574,-322,-170,192,-456
2,201144,127,2234,-424,-1028,-574,-322,-170,192,-456
2,201149,127,2235,-427,-1022,-580,-323,-170,192,-456
2,201154,127,2235,-427,-1022,-580,-323,-170,192,-456
2,201159,127,2235,-427,-1022,-580,-323,-170,192,-456
2,201165,126,2239,-423,-1015,-582,-327,-167,195,-461
2,201171,126,2239,-423,-1015,-582,-327,-167,195,-461
2,201177,126,2239,-423,-1015,-582,-327,-167,195,-461
2,201183,126,2239,-423,-1015,-582,-327,-167,195,-461
2,201188,128,2237,-423,-1022,-578,-328,-167,195,-461
2,201194,128,2237,-423,-1022,-578,-328,-167,195,-461
2,201199,128,2237,-423,-1022,-578,-328,-167,195,-461
2,201205,126,2235,-424,-1019,-575,-334,-167,195,-461
2,201211,126,2235,-424,-1019,-575,-334,-167,195,-461
2,201217,126,2235,-424,-1019,-575,-334,-167,195,-461
2,201222,126,2235,-424,-1019,-575,-334,-167,195,-461
2,201227,129,2236,-428,-1019,-578,-330,-167,195,-461
2,201233,129,2236,-428,-1019,-578,-330,-167,195,-461
2,201238,129,2236,-428,-1019,-578,-330,-167,195,-461
2,201244,126,2235,-426,-1021,-580,-323,-167,195,-461
2,201249,126,2235,-426,-1021,-580,-323,-167,195,-461
2,201255,126,2235,-426,-1021,-580,-323,-167,195,-461
2,201262,126,2235,-426,-1021,-580,-323,-167,195,-461
2,201267,127,2235,-427,-1027,-580,-325,-167,195,-461
2,201273,127,2235,-427,-1027,-580,-325,-167,195,-461
2,201278,127,2235,-427,-1027,-580,-325,-167,195,-461
2,201284,127,2235,-427,-1027,-580,-325,-167,195,-461
2,201289,122,2235,-426,-1021,-584,-331,-169,189,-455
2,201294,122,2235,-426,-1021,-584,-331,-169,189,-455
2,201299,122,2235,-426,-1021,-584,-331,-169,189,-455
2,201306,127,2234,-425,-1022,-580,-331,-169,189,-455
2,201311,127,2234,-425,-1022,-580,-331,-169,189,-455
2,201317,127,2234,-425,-1022,-580,-331,-169,189,-455
2,201322,127,2234,-425,-1022,-580,-331,-169,189,-455
2,201327,129,2236,-420,-1023,-579,-322,-169,189,-455
2,201333,129,2236,-420,-1023,-579,-322,-169,189,-455
2,201338,129,2236,-420,-1023,-579,-322,-169,189,-455
2,201344,129,2236,-420,-1023,-579,-322,-169,189,-455
2,201349,127,2235,-428,-1024,-582,-335,-169,189,-455
2,201355,127,2235,-428,-1024,-582,-335,-169,189,-455
2,201360,127,2235,-428,-1024,-582,-335,-169,189,-455
2,201366,125,2234,-422,-1024,-582,-329,-169,189,-455
2,201371,125,2234,-422,-1024,-582,-329,-169,189,-455
2,201376,125,2234,-422,-1024,-582,-329,-169,189,-455
2,201382,125,2234,-422,-1024,-582,-329,-169,189,-455
2,201388,124,2239,-429,-1020,-570,-320,-169,189,-455
2,201394,124,2239,-429,-1020,-570,-320,-169,189,-455
2,201399,124,2239,-429,-1020,-570,-320,-169,189,-455
2,201405,126,2236,-434,-1024,-577,-324,-169,189,-455
2,201410,126,2236,-434,-1024,-577,-324,-169,189,-455
2,201416,126,2236,-434,-1024,-577,-324,-169,189,-455
2,201421,126,2236,-434,-1024,-577,-324,-169,189,-455
2,201427,126,2235,-427,-1028,-580,-324,-169,183,-449
2,201433,126,2235,-427,-1028,-580,-324,-169,183,-449
2,201439,126,2235,-427,-1028,-580,-324,-169,183,-449
2,201444,126,2235,-427,-1028,-580,-324,-169,183,-449
2,201449,125,2235,-428,-1025,-585,-326,-169,183,-449
2,201455,125,2235,-428,-1025,-585,-326,-169,183,-449
2,201460,125,2235,-428,-1025,-585,-326,-169,183,-449
2,201465,130,2237,-424,-1023,-579,-332,-169,183,-449
2,201472,130,2237,-424,-1023,-579,-332,-169,183,-449
2,201477,130,2237,-424,-1023,-579,-332,-169,183,-449
2,201482,130,2237,-424,-1023,-579,-332,-169,183,-449
2,201488,124,2236,-425,-1029,-578,-334,-169,183,-449
2,201493,124,2236,-425,-1029,-578,-334,-169,183,-449
2,201499,124,2236,-425,-1029,-578,-334,-169,183,-449
2,201504,124,2236,-425,-1029,-578,-334,-169,183,-449
2,201509,127,2234,-421,-1021,-577,-336,-169,183,-449
2,201516,127,2234,-421,-1021,-577,-336,-169,183,-449
2,201521,127,2234,-421,-1021,-577,-336,-169,183,-449
2,201526,129,2234,-435,-1025,-574,-341,-169,183,-449
2,201532,129,2234,-435,-1025,-574,-341,-169,183,-449
2,201537,129,2234,-435,-1025,-574,-341,-169,183,-449
2,201543,129,2234,-435,-1025,-574,-341,-169,183,-449
2,201548,126,2233,-428,-1016,-579,-331,-169,191,-457
2,201553,126,2233,-428,-1016,-579,-331,-169,191,-457
2,201560,126,2233,-428,-1016,-579,-331,-169,191,-457
2,201565,127,2236,-423,-1017,-586,-325,-169,191,-457
2,201570,127,2236,-423,-1017,-586,-325,-169,191,-457
2,201575,127,2236,-423,-1017,-586,-325,-169,191,-457
2,201581,127,2236,-423,-1017,-586,-325,-169,191,-457
2,201586,125,2235,-426,-1023,-584,-331,-169,191,-457
2,201592,125,2235,-426,-1023,-584,-331,-169,191,-457
2,201597,125,2235,-426,-1023,-584,-331,-169,191,-457
2,201604,125,2235,-426,-1023,-584,-331,-169,191,-457
2,201610,125,2234,-428,-1025,-581,-329,-169,191,-457
2,201615,125,2234,-428,-1025,-581,-329,-169,191,-457
2,201621,125,2234,-428,-1025,-581,-329,-169,191,-457
2,201626,127,2234,-427,-1018,-575,-333,-169,191,-457
2,201631,127,2234,-427,-1018,-575,-333,-169,191,-457
2,201637,127,2234,-427,-1018,-575,-333,-169,191,-457
2,201643,127,2234,-427,-1018,-575,-333,-169,191,-457
2,201649,129,2232,-426,-1018,-573,-331,-169,191,-457
2,201654,129,2232,-426,-1018,-573,-331,-169,191,-457
2,201659,129,2232,-426,-1018,-573,-331,-169,191,-457
2,201665,128,2233,-425,-1016,-568,-328,-169,191,-457
2,201671,128,2233,-425,-1016,-568,-328,-169,191,-457
2,201675,128,2233,-425,-1016,-568,-328,-169,191,-457
2,201681,128,2233,-425,-1016,-568,-328,-169,191,-457
2,201687,130,2234,-427,-1020,-580,-326,-163,185,-457
2,201694,130,2234,-427,-1020,-580,-326,-163,185,-457
2,201699,130,2234,-427,-1020,-580,-326,-163,185,-457
2,201704,130,2234,-427,-1020,-580,-326,-163,185,-457
2,201709,125,2234,-422,-1023,-577,-326,-163,185,-457
2,201715,125,2234,-422,-1023,-577,-326,-163,185,-457
2,201720,125,2234,-422,-1023,-577,-326,-163,185,-457
2,201725,125,2236,-427,-1021,-576,-333,-163,185,-457
2,201732,125,2236,-427,-1021,-576,-333,-163,185,-457
2,201738,125,2236,-427,-1021,-576,-333,-163,185,-457
2,201744,125,2236,-427,-1021,-576,-333,-163,185,-457
2,201750,125,2236,-427,-1025,-579,-330,-163,185,-457
2,201755,125,2236,-427,-1025,-579,-330,-163,185,-457
2,201761,125,2236,-427,-1025,-579,-330,-163,185,-457
2,201767,124,2237,-431,-1021,-581,-328,-163,185,-457
2,201773,124,2237,-431,-1021,-581,-328,-163,185,-457
2,201778,124,2237,-431,-1021,-581,-328,-163,185,-457
2,201783,124,2237,-431,-1021,-581,-328,-163,185,-457
2,201789,123,2236,-431,-1021,-578,-327,-163,185,-457
2,201794,123,2236,-431,-1021,-578,-327,-163,185,-457
2,201800,123,2236,-431,-1021,-578,-327,-163,185,-457
2,201805,124,2237,-424,-1027,-575,-321,-172,182,-458
2,201811,124,2237,-424,-1027,-575,-321,-172,182,-458
2,201816,124,2237,-424,-1027,-575,-321,-172,182,-458
2,201822,124,2237,-424,-1027,-575,-321,-172,182,-458
2,201827,127,2234,-426,-1027,-575,-326,-172,182,-458
2,201833,127,2234,-426,-1027,-575,-326,-172,182,-458
2,201838,127,2234,-426,-1027,-575,-326,-172,182,-458
2,201844,127,2234,-426,-1027,-575,-326,-172,182,-458
2,201849,126,2232,-428,-1025,-579,-322,-172,182,-458
2,201856,126,2232,-428,-1025,-579,-322,-172,182,-458
2,201861,126,2232,-428,-1025,-579,-322,-172,182,-458
2,201867,123,2233,-425,-1025,-578,-325,-172,182,-458
2,201872,123,2233,-425,-1025,-578,-325,-172,182,-458
2,201877,123,2233,-425,-1025,-578,-325,-172,182,-458
2,201883,123,2233,-425,-1025,-578,-325,-172,182,-458
2,201888,126,2235,-424,-1020,-583,-327,-172,182,-458
2,201894,126,2235,-424,-1020,-583,-327,-172,182,-458
2,201900,126,2235,-424,-1020,-583,-327,-172,182,-458
2,201905,126,2235,-424,-1020,-583,-327,-172,182,-458
2,201910,126,2230,-425,-1015,-578,-324,-172,182,-458
2,201915,126,2230,-425,-1015,-578,-324,-172,182,-458
2,201921,126,2230,-425,-1015,-578,-324,-172,182,-458
2,201926,123,2236,-422,-1025,-575,-329,-169,197,-457
2,201931,123,2236,-422,-1025,-575,-329,-169,197,-457
2,201937,123,2236,-422,-1025,-575,-329,-169,197,-457
2,201943,123,2236,-422,-1025,-575,-329,-169,197,-457
2,201948,127,2235,-418,-1023,-576,-325,-169,197,-457
2,201954,127,2235,-418,-1023,-576,-325,-169,197,-457
2,201959,127,2235,-418,-1023,-576,-325,-169,197,-457
2,201965,127,2235,-418,-1023,-576,-325,-169,197,-457
2,201970,126,2235,-430,-1022,-582,-322,-169,197,-457
2,201975,126,2235,-430,-1022,-582,-322,-169,197,-457
2,201981,126,2235,-430,-1022,-582,-322,-169,197,-457
2,201987,125,2237,-424,-1019,-580,-321,-169,197,-457
2,201992,125,2237,-424,-1019,-580,-321,-169,197,-457
2,201997,125,2237,-424,-1019,-580,-321,-169,197,-457
2,202003,125,2237,-424,-1019,-580,-321,-169,197,-457
2,202009,126,2236,-426,-1023,-581,-324,-169,197,-457
2,202013,126,2236,-426,-1023,-581,-324,-169,197,-457
2,202019,126,2236,-426,-1023,-581,-324,-169,197,-457
2,202025,127,2234,-424,-1033,-578,-328,-169,197,-457
2,202031,127,2234,-424,-1033,-578,-328,-169,197,-457
2,202036,127,2234,-424,-1033,-578,-328,-169,197,-457
2,202041,127,2234,-424,-1033,-578,-328,-169,197,-457
2,202047,126,2234,-429,-1030,-579,-327,-169,197,-457
2,202053,126,2234,-429,-1030,-579,-327,-169,197,-457
2,202058,126,2234,-429,-1030,-579,-327,-169,197,-457
2,202064,126,2234,-429,-1030,-579,-327,-169,197,-457
2,202070,124,2235,-429,-1029,-580,-329,-175,187,-455
2,202076,124,2235,-429,-1029,-580,-329,-175,187,-455
2,202081,124,2235,-429,-1029,-580,-329,-175,187,-455
2,202087,126,2236,-422,-1022,-575,-333,-175,187,-455
2,202092,126,2236,-422,-1022,-575,-333,-175,187,-455
2,202097,126,2236,-422,-1022,-575,-333,-175,187,-455
2,202103,126,2236,-422,-1022,-575,-333,-175,187,-455
2,202108,127,2233,-424,-1024,-574,-321,-175,187,-455
2,202115,127,2233,-424,-1024,-574,-321,-175,187,-455
2,202120,127,2233,-424,-1024,-574,-321,-175,187,-455
2,202125,123,2237,-424,-1023,-574,-324,-175,187,-455
2,202131,123,2237,-424,-1023,-574,-324,-175,187,-455
2,202136,123,2237,-424,-1023,-574,-324,-175,187,-455
2,202141,123,2237,-424,-1023,-574,-324,-175,187,-455
2,202147,125,2233,-430,-1021,-574,-324,-175,187,-455
2,202152,125,2233,-430,-1021,-574,-324,-175,187,-455
2,202158,125,2233,-430,-1021,-574,-324,-175,187,-455
2,202163,125,2233,-430,-1021,-574,-324,-175,187,-455
2,202169,123,2236,-425,-1034,-579,-336,-175,187,-455
2,202174,123,2236,-425,-1034,-579,-336,-175,187,-455
2,202180,123,2236,-425,-1034,-579,-336,-175,187,-455
2,202185,125,2235,-424,-1023,-580,-328,-167,189,-449
2,202191,125,2235,-424,-1023,-580,-328,-167,189,-449
2,202198,125,2235,-424,-1023,-580,-328,-167,189,-449
2,202203,125,2235,-424,-1023,-580,-328,-167,189,-449
2,202208,127,2235,-424,-1016,-578,-328,-167,189,-449
2,202213,127,2235,-424,-1016,-578,-328,-167,189,-449
2,202219,127,2235,-424,-1016,-578,-328,-167,189,-449
2,202224,127,2235,-424,-1016,-578,-328,-167,189,-449
2,202229,126,2234,-430,-1018,-585,-323,-167,189,-449
2,202234,126,2234,-430,-1018,-585,-323,-167,189,-449
2,202240,126,2234,-430,-1018,-585,-323,-167,189,-449
2,202246,126,2235,-423,-1023,-584,-323,-167,189,-449
2,202251,126,2235,-423,-1023,-584,-323,-167,189,-449
2,202257,126,2235,-423,-1023,-584,-323,-167,189,-449
2,202263,126,2235,-423,-1023,-584,-323,-167,189,-449
2,202268,129,2236,-428,-1025,-582,-320,-167,189,-449
2,202273,129,2236,-428,-1025,-582,-320,-167,189,-449
2,202279,129,2236,-428,-1025,-582,-320,-167,189,-449
2,202285,129,2236,-428,-1025,-582,-320,-167,189,-449
2,202291,127,2237,-430,-1020,-577,-324,-167,189,-449
2,202296,127,2237,-430,-1020,-577,-324,-167,189,-449
2,202302,127,2237,-430,-1020,-577,-324,-167,189,-449
2,202307,126,2240,-427,-1026,-575,-333,-167,189,-449
2,202312,126,2240,-427,-1026,-575,-333,-167,189,-449
2,202318,126,2240,-427,-1026,-575,-333,-167,189,-449
2,202323,126,2240,-427,-1026,-575,-333,-167,189,-449
2,202329,127,2234,-419,-1025,-576,-323,-174,194,-456
2,202335,127,2234,-419,-1025,-576,-323,-174,194,-456
2,202340,127,2234,-419,-1025,-576,-323,-174,194,-456
2,202346,128,2235,-426,-1023,-576,-326,-174,194,-456
2,202351,128,2235,-426,-1023,-576,-326,-174,194,-456
2,202357,128,2235,-426,-1023,-576,-326,-174,194,-456
2,202362,128,2235,-426,-1023,-576,-326,-174,194,-456
2,202369,126,2236,-427,-1022,-584,-331,-174,194,-456
2,202375,126,2236,-427,-1022,-584,-331,-174,194,-456
2,202380,126,2236,-427,-1022,-584,-331,-174,194,-456
2,202385,126,2236,-427,-1022,-584,-331,-174,194,-456
2,202391,124,2235,-421,-1015,-581,-324,-174,194,-456
2,202396,124,2235,-421,-1015,-581,-324,-174,194,-456
2,202402,124,2235,-421,-1015,-581,-324,-174,194,-456
2,202407,126,2236,-428,-1016,-578,-325,-174,194,-456
2,202414,126,2236,-428,-1016,-578,-325,-174,194,-456
2,202419,126,2236,-428,-1016,-578,-325,-174,194,-456
2,202424,126,2236,-428,-1016,-578,-325,-174,194,-456
2,202430,126,2235,-425,-1020,-576,-327,-174,194,-456
2,202435,126,2235,-425,-1020,-576,-327,-174,194,-456
2,202441,126,2235,-425,-1020,-576,-327,-174,194,-456
2,202446,126,2235,-425,-1020,-576,-327,-164,188,-454
2,202452,126,2235,-425,-1020,-576,-327,-164,188,-454
2,202459,126,2235,-425,-1020,-576,-327,-164,188,-454
2,202464,126,2235,-425,-1020,-576,-327,-164,188,-454
2,202470,127,2234,-428,-1024,-580,-324,-164,188,-454
2,202475,127,2234,-428,-1024,-580,-324,-164,188,-454
2,202481,127,2234,-428,-1024,-580,-324,-164,188,-454
2,202485,124,2233,-428,-1025,-582,-327,-164,188,-454
2,202491,124,2233,-428,-1025,-582,-327,-164,188,-454
2,202497,124,2233,-428,-1025,-582,-327,-164,188,-454
2,202503,124,2233,-428,-1025,-582,-327,-164,188,-454
2,202508,126,2232,-430,-1016,-581,-320,-164,188,-454
2,202514,126,2232,-430,-1016,-581,-320,-164,188,-454
2,202519,126,2232,-430,-1016,-581,-320,-164,188,-454
2,202524,126,2232,-430,-1016,-581,-320,-164,188,-454
2,202530,125,2239,-426,-1021,-583,-323,-164,188,-454
2,202535,125,2239,-426,-1021,-583,-323,-164,188,-454
2,202542,125,2239,-426,-1021,-583,-323,-164,188,-454
2,202547,127,2237,-427,-1021,-582,-331,-164,188,-454
2,202553,127,2237,-427,-1021,-582,-331,-164,188,-454
2,202558,127,2237,-427,-1021,-582,-331,-164,188,-454
2,202564,127,2237,-427,-1021,-582,-331,-164,188,-454
2,202569,125,2237,-425,-1019,-576,-321,-170,182,-456
2,202574,125,2237,-425,-1019,-576,-321,-170,182,-456
2,202580,125,2237,-425,-1019,-576,-321,-170,182,-456
2,202586,124,2235,-417,-1021,-575,-323,-170,182,-456
2,202591,124,2235,-417,-1021,-575,-323,-170,182,-456
2,202597,124,2235,-417,-1021,-575,-323,-170,182,-456
2,202602,124,2235,-417,-1021,-575,-323,-170,182,-456
2,202607,125,2239,-421,-1021,-579,-332,-170,182,-456
2,202612,125,2239,-421,-1021,-579,-332,-170,182,-456
2,202618,125,2239,-421,-1021,-579,-332,-170,182,-456
2,202624,125,2239,-421,-1021,-579,-332,-170,182,-456
2,202629,129,2233,-424,-1021,-578,-334,-170,182,-456
2,202635,129,2233,-424,-1021,-578,-334,-170,182,-456
2,202640,129,2233,-424,-1021,-578,-334,-170,182,-456
2,202645,129,2233,-424,-1021,-578,-334,-170,182,-456
2,202650,127,2235,-424,-1020,-570,-332,-170,182,-456
2,202656,127,2235,-424,-1020,-570,-332,-170,182,-456
2,202661,127,2235,-424,-1020,-570,-332,-170,182,-456
2,202667,124,2236,-430,-1022,-570,-330,-170,182,-456
2,202672,124,2236,-430,-1022,-570,-330,-170,182,-456
2,202677,124,2236,-430,-1022,-570,-330,-170,182,-456
2,202682,124,2236,-430,-1022,-570,-330,-170,182,-456
2,202688,125,2235,-424,-1021,-577,-332,-170,182,-456
2,202694,125,2235,-424,-1021,-577,-332,-170,182,-456
2,202699,125,2235,-424,-1021,-577,-332,-170,182,-456
2,202706,127,2234,-423,-1029,-577,-336,-166,190,-450
2,202713,127,2234,-423,-1029,-577,-336,-166,190,-450
2,202718,127,2234,-423,-1029,-577,-336,-166,190,-450
2,202723,127,2234,-423,-1029,-577,-336,-166,190,-450
2,202729,125,2234,-421,-1023,-582,-332,-166,190,-450
2,202734,125,2234,-421,-1023,-582,-332,-166,190,-450
2,202740,125,2234,-421,-1023,-582,-332,-166,190,-450
2,202745,125,2234,-421,-1023,-582,-332,-166,190,-450
2,202752,125,2233,-425,-1022,-568,-328,-166,190,-450
2,202758,125,2233,-425,-1022,-568,-328,-166,190,-450
2,202763,125,2233,-425,-1022,-568,-328,-166,190,-450
2,202768,127,2234,-425,-1020,-580,-327,-166,190,-450
2,202773,127,2234,-425,-1020,-580,-327,-166,190,-450
2,202779,127,2234,-425,-1020,-580,-327,-166,190,-450
2,202784,127,2234,-425,-1020,-580,-327,-166,190,-450
2,202790,126,2235,-428,-1024,-575,-331,-166,190,-450
2,202796,126,2235,-428,-1024,-575,-331,-166,190,-450
2,202801,126,2235,-428,-1024,-575,-331,-166,190,-450
2,202807,127,2234,-426,-1023,-580,-329,-166,190,-450
2,202812,127,2234,-426,-1023,-580,-329,-166,190,-450
2,202818,127,2234,-426,-1023,-580,-329,-166,190,-450
2,202823,127,2234,-426,-1023,-580,-329,-166,190,-450
2,202829,129,2234,-430,-1025,-581,-325,-173,191,-457
2,202834,129,2234,-430,-1025,-581,-325,-173,191,-457
2,202841,129,2234,-430,-1025,-581,-325,-173,191,-457
2,202846,129,2234,-430,-1025,-581,-325,-173,191,-457
2,202852,131,2236,-423,-1024,-574,-326,-173,191,-457
2,202857,131,2236,-423,-1024,-574,-326,-173,191,-457
2,202862,131,2236,-423,-1024,-574,-326,-173,191,-457
2,202868,127,2234,-425,-1026,-575,-328,-173,191,-457
2,202873,127,2234,-425,-1026,-575,-328,-173,191,-457
2,202878,127,2234,-425,-1026,-575,-328,-173,191,-457
2,202884,127,2234,-425,-1026,-575,-328,-173,191,-457
2,202890,125,2233,-430,-1020,-571,-328,-173,191,-457
2,202895,125,2233,-430,-1020,-571,-328,-173,191,-457
2,202900,125,2233,-430,-1020,-571,-328,-173,191,-457
2,202905,125,2233,-430,-1020,-571,-328,-173,191,-457
2,202910,126,2234,-429,-1018,-574,-330,-173,191,-457
2,202916,126,2234,-429,-1018,-574,-330,-173,191,-457
2,202921,126,2234,-429,-1018,-574,-330,-173,191,-457
2,202928,125,2235,-427,-1015,-570,-324,-173,191,-457
2,202933,125,2235,-427,-1015,-570,-324,-173,191,-457
2,202938,125,2235,-427,-1015,-570,-324,-173,191,-457
2,202944,125,2235,-427,-1015,-570,-324,-173,191,-457
2,202949,127,2236,-428,-1025,-577,-323,-173,191,-457
2,202954,127,2236,-428,-1025,-577,-323,-173,191,-457
2,202960,127,2236,-428,-1025,-577,-323,-173,191,-457
2,202966,127,2236,-428,-1025,-577,-323,-173,191,-457
2,202971,128,2238,-419,-1026,-583,-333,-170,196,-456
2,202977,128,2238,-419,-1026,-583,-333,-170,196,-456
2,202982,128,2238,-419,-1026,-583,-333,-170,196,-456
2,202988,128,2238,-425,-1022,-585,-316,-170,196,-456
2,202992,128,2238,-425,-1022,-585,-316,-170,196,-456
2,202998,128,2238,-425,-1022,-585,-316,-170,196,-456
2,203003,128,2238,-425,-1022,-585,-316,-170,196,-456
2,203009,122,2233,-424,-1026,-579,-324,-170,196,-456
2,203015,122,2233,-424,-1026,-579,-324,-170,196,-456
2,203019,122,2233,-424,-1026,-579,-324,-170,196,-456
2,203025,122,2233,-424,-1026,-579,-324,-170,196,-456
2,203030,126,2236,-421,-1021,-583,-320,-170,196,-456
2,203035,126,2236,-421,-1021,-583,-320,-170,196,-456
2,203040,126,2236,-421,-1021,-583,-320,-170,196,-456
2,203047,125,2234,-419,-1022,-582,-322,-170,196,-456
2,203053,125,2234,-419,-1022,-582,-322,-170,196,-456
2,203058,125,2234,-419,-1022,-582,-322,-170,196,-456
2,203064,125,2234,-419,-1022,-582,-322,-170,196,-456
2,203069,127,2236,-428,-1017,-578,-326,-170,196,-456
2,203074,127,2236,-428,-1017,-578,-326,-170,196,-456
2,203080,127,2236,-428,-1017,-578,-326,-170,196,-456
2,203085,127,2236,-428,-1017,-578,-326,-170,196,-456
2,203090,126,2235,-421,-1020,-578,-328,-172,188,-454
2,203097,126,2235,-421,-1020,-578,-328,-172,188,-454
2,203102,126,2235,-421,-1020,-578,-328,-172,188,-454
2,203107,123,2238,-421,-1027,-579,-323,-172,188,-454
2,203113,123,2238,-421,-1027,-579,-323,-172,188,-454
2,203118,123,2238,-421,-1027,-579,-323,-172,188,-454
2,203124,123,2238,-421,-1027,-579,-323,-172,188,-454
2,203128,126,2237,-427,-1025,-581,-321,-172,188,-454
2,203134,126,2237,-427,-1025,-581,-321,-172,188,-454
2,203140,126,2237,-427,-1025,-581,-321,-172,188,-454
2,203145,126,2237,-427,-1025,-581,-321,-172,188,-454
2,203150,126,2235,-426,-1019,-575,-332,-172,188,-454
2,203155,126,2235,-426,-1019,-575,-332,-172,188,-454
2,203161,126,2235,-426,-1019,-575,-332,-172,188,-454
2,203166,126,2235,-426,-1019,-575,-332,-172,188,-454
2,203171,126,2235,-422,-1022,-573,-328,-172,188,-454
2,203176,126,2235,-422,-1022,-573,-328,-172,188,-454
2,203183,126,2235,-422,-1022,-573,-328,-172,188,-454
2,203188,128,2237,-424,-1017,-579,-334,-172,188,-454
2,203193,128,2237,-424,-1017,-579,-334,-172,188,-454
2,203198,128,2237,-424,-1017,-579,-334,-172,188,-454
2,203203,128,2237,-424,-1017,-579,-334,-172,188,-454
2,203209,127,2236,-425,-1014,-577,-326,-173,193,-457
2,203214,127,2236,-425,-1014,-577,-326,-173,193,-457
2,203219,127,2236,-425,-1014,-577,-326,-173,193,-457
2,203226,127,2236,-425,-1014,-577,-326,-173,193,-457
2,203232,125,2234,-418,-1016,-577,-327,-173,193,-457
2,203237,125,2234,-418,-1016,-577,-327,-173,193,-457
2,203242,125,2234,-418,-1016,-577,-327,-173,193,-457
2,203247,126,2236,-418,-1018,-584,-332,-173,193,-457
2,203253,126,2236,-418,-1018,-584,-332,-173,193,-457
2,203258,126,2236,-418,-1018,-584,-332,-173,193,-457
2,203264,126,2236,-418,-1018,-584,-332,-173,193,-457
2,203270,127,2234,-428,-1025,-581,-325,-173,193,-457
2,203275,127,2234,-428,-1025,-581,-325,-173,193,-457
2,203280,127,2234,-428,-1025,-581,-325,-173,193,-457
2,203286,127,2234,-428,-1025,-581,-325,-173,193,-457
2,203291,126,2233,-423,-1025,-582,-325,-173,193,-457
2,203297,126,2233,-423,-1025,-582,-325,-173,193,-457
2,203302,126,2233,-423,-1025,-582,-325,-173,193,-457
2,203309,129,2236,-422,-1027,-574,-326,-173,193,-457
2,203315,129,2236,-422,-1027,-574,-326,-173,193,-457
2,203320,129,2236,-422,-1027,-574,-326,-173,193,-457
2,203326,129,2236,-422,-1027,-574,-326,-173,193,-457
2,203331,130,2238,-425,-1021,-576,-322,-173,193,-457
2,203336,130,2238,-425,-1021,-576,-322,-173,193,-457
2,203341,130,2238,-425,-1021,-576,-322,-173,193,-457
2,203347,126,2235,-422,-1024,-571,-329,-168,188,-450
2,203354,126,2235,-422,-1024,-571,-329,-168,188,-450
2,203359,126,2235,-422,-1024,-571,-329,-168,188,-450
2,203364,126,2235,-422,-1024,-571,-329,-168,188,-450
2,203369,123,2236,-420,-1023,-570,-321,-168,188,-450
2,203374,123,2236,-420,-1023,-570,-321,-168,188,-450
2,203380,123,2236,-420,-1023,-570,-321,-168,188,-450
2,203385,123,2236,-420,-1023,-570,-321,-168,188,-450
2,203392,127,2234,-417,-1024,-573,-322,-168,188,-450
2,203397,127,2234,-417,-1024,-573,-322,-168,188,-450
2,203403,127,2234,-417,-1024,-573,-322,-168,188,-450
2,203408,128,2234,-424,-1019,-581,-321,-168,188,-450
2,203413,128,2234,-424,-1019,-581,-321,-168,188,-450
2,203419,128,2234,-424,-1019,-581,-321,-168,188,-450
2,203424,128,2234,-424,-1019,-581,-321,-168,188,-450
2,203429,124,2234,-427,-1023,-576,-320,-168,188,-450
2,203435,124,2234,-427,-1023,-576,-320,-168,188,-450
2,203441,124,2234,-427,-1023,-576,-320,-168,188,-450
2,203446,124,2234,-427,-1023,-576,-320,-168,188,-450
2,203451,128,2238,-431,-1023,-578,-327,-168,188,-450
2,203457,128,2238,-431,-1023,-578,-327,-168,188,-450
2,203463,128,2238,-431,-1023,-578,-327,-168,188,-450
2,203468,127,2237,-421,-1016,-575,-324,-168,194,-458
2,203473,127,2237,-421,-1016,-575,-324,-168,194,-458
2,203479,127,2237,-421,-1016,-575,-324,-168,194,-458
2,203484,127,2237,-421,-1016,-575,-324,-168,194,-458
2,203490,125,2233,-425,-1013,-576,-332,-168,194,-458
2,203495,125,2233,-425,-1013,-576,-332,-168,194,-458
2,203501,125,2233,-425,-1013,-576,-332,-168,194,-458
2,203506,125,2233,-425,-1013,-576,-332,-168,194,-458
2,203511,126,2236,-427,-1016,-579,-328,-168,194,-458
2,203517,126,2236,-427,-1016,-579,-328,-168,194,-458
2,203523,126,2236,-427,-1016,-579,-328,-168,194,-458
2,203528,129,2236,-427,-1026,-576,-321,-168,194,-458
2,203534,129,2236,-427,-1026,-576,-321,-168,194,-458
2,203539,129,2236,-427,-1026,-576,-321,-168,194,-458
2,203545,129,2236,-427,-1026,-576,-321,-168,194,-458
2,203550,126,2235,-420,-1032,-576,-321,-168,194,-458
2,203555,126,2235,-420,-1032,-576,-321,-168,194,-458
2,203560,126,2235,-420,-1032,-576,-321,-168,194,-458
2,203567,126,2235,-420,-1032,-576,-321,-168,194,-458
2,203572,128,2234,-428,-1025,-580,-325,-168,194,-458
2,203577,128,2234,-428,-1025,-580,-325,-168,194,-458
2,203583,128,2234,-428,-1025,-580,-325,-168,194,-458
2,203589,130,2235,-428,-1017,-575,-328,-168,194,-458
2,203594,130,2235,-428,-1017,-575,-328,-168,194,-458
2,203600,130,2235,-428,-1017,-575,-328,-168,194,-458
2,203606,130,2235,-428,-1017,-575,-328,-168,194,-458
2,203611,128,2239,-425,-1020,-578,-324,-172,186,-460
2,203616,128,2239,-425,-1020,-578,-324,-172,186,-460
2,203621,128,2239,-425,-1020,-578,-324,-172,186,-460
2,203627,128,2239,-425,-1020,-578,-324,-172,186,-460
2,203632,125,2238,-427,-1022,-582,-329,-172,186,-460
2,203637,125,2238,-427,-1022,-582,-329,-172,186,-460
2,203643,125,2238,-427,-1022,-582,-329,-172,186,-460
2,203650,129,2235,-428,-1013,-574,-328,-172,186,-460
2,203655,129,2235,-428,-1013,-574,-328,-172,186,-460
2,203661,129,2235,-428,-1013,-574,-328,-172,186,-460
2,203667,129,2235,-428,-1013,-574,-328,-172,186,-460
2,203672,128,2235,-425,-1016,-574,-325,-172,186,-460
2,203677,128,2235,-425,-1016,-574,-325,-172,186,-460
2,203683,128,2235,-425,-1016,-574,-325,-172,186,-460
2,203688,127,2237,-425,-1020,-580,-329,-172,186,-460
2,203695,127,2237,-425,-1020,-580,-329,-172,186,-460
2,203700,127,2237,-425,-1020,-580,-329,-172,186,-460
2,203706,127,2237,-425,-1020,-580,-329,-172,186,-460
2,203711,127,2237,-427,-1020,-571,-332,-172,186,-460
2,203717,127,2237,-427,-1020,-571,-332,-172,186,-460
2,203722,127,2237,-427,-1020,-571,-332,-172,186,-460
2,203727,127,2237,-424,-1024,-573,-330,-172,188,-448
2,203732,127,2237,-424,-1024,-573,-330,-172,188,-448
2,203739,127,2237,-424,-1024,-573,-330,-172,188,-448
2,203745,127,2237,-424,-1024,-573,-330,-172,188,-448
2,203750,127,2235,-424,-1021,-570,-330,-172,188,-448
2,203758,127,2235,-424,-1021,-570,-330,-172,188,-448
2,203763,127,2235,-424,-1021,-570,-330,-172,188,-448
2,203769,128,2237,-430,-1027,-571,-330,-172,188,-448
2,203774,128,2237,-430,-1027,-571,-330,-172,188,-448
2,203781,128,2237,-430,-1027,-571,-330,-172,188,-448
2,203787,128,2237,-430,-1027,-571,-330,-172,188,-448
2,203792,125,2233,-421,-1027,-575,-325,-172,188,-448
2,203798,125,2233,-421,-1027,-575,-325,-172,188,-448
2,203803,125,2233,-421,-1027,-575,-325,-172,188,-448
2,203809,130,2236,-426,-1031,-576,-331,-172,188,-448
2,203813,130,2236,-426,-1031,-576,-331,-172,188,-448
2,203819,130,2236,-426,-1031,-576,-331,-172,188,-448
2,203825,130,2236,-426,-1031,-576,-331,-172,188,-448
2,203831,128,2238,-428,-1025,-570,-330,-172,188,-448
2,203836,128,2238,-428,-1025,-570,-330,-172,188,-448
2,203841,128,2238,-428,-1025,-570,-330,-172,188,-448
2,203846,128,2238,-428,-1025,-570,-330,-172,188,-448
2,203852,125,2235,-420,-1023,-572,-327,-173,193,-461
2,203857,125,2235,-420,-1023,-572,-327,-173,193,-461
2,203864,125,2235,-420,-1023,-572,-327,-173,193,-461
2,203869,127,2234,-420,-1023,-573,-326,-173,193,-461
2,203875,127,2234,-420,-1023,-573,-326,-173,193,-461
2,203880,127,2234,-420,-1023,-573,-326,-173,193,-461
2,203886,127,2234,-420,-1023,-573,-326,-173,193,-461
2,203891,127,2233,-421,-1016,-574,-329,-173,193,-461
2,203896,127,2233,-421,-1016,-574,-329,-173,193,-461
2,203902,127,2233,-421,-1016,-574,-329,-173,193,-461
2,203909,128,2233,-428,-1012,-575,-320,-173,193,-461
2,203915,128,2233,-428,-1012,-575,-320,-173,193,-461
2,203920,128,2233,-428,-1012,-575,-320,-173,193,-461
2,203925,128,2233,-428,-1012,-575,-320,-173,193,-461
2,203931,124,2234,-429,-1024,-569,-327,-173,193,-461
2,203936,124,2234,-429,-1024,-569,-327,-173,193,-461
2,203941,124,2234,-429,-1024,-569,-327,-173,193,-461
2,203948,124,2234,-429,-1024,-569,-327,-173,193,-461
2,203953,124,2234,-417,-1011,-564,-325,-173,193,-461
2,203958,124,2234,-417,-1011,-564,-325,-173,193,-461
2,203964,124,2234,-417,-1011,-564,-325,-173,193,-461
2,203969,124,2237,-428,-1028,-568,-329,-173,193,-461
2,203975,124,2237,-428,-1028,-568,-329,-173,193,-461
2,203980,124,2237,-428,-1028,-568,-329,-173,193,-461
2,203985,124,2237,-428,-1028,-568,-329,-173,193,-461
2,203991,126,2235,-421,-1025,-577,-333,-176,190,-460
2,203997,126,2235,-421,-1025,-577,-333,-176,190,-460
2,204003,126,2235,-421,-1025,-577,-333,-176,190,-460
2,204008,127,2233,-417,-1017,-575,-332,-176,190,-460
2,204013,127,2233,-417,-1017,-575,-332,-176,190,-460
2,204019,127,2233,-417,-1017,-575,-332,-176,190,-460
2,204024,127,2233,-417,-1017,-575,-332,-176,190,-460
2,204029,129,2234,-427,-1021,-577,-332,-176,190,-460
2,204035,129,2234,-427,-1021,-577,-332,-176,190,-460
2,204041,129,2234,-427,-1021,-577,-332,-176,190,-460
2,204047,129,2234,-427,-1021,-577,-332,-176,190,-460
2,204052,129,2233,-425,-1019,-583,-330,-176,190,-460
2,204058,129,2233,-425,-1019,-583,-330,-176,190,-460
2,204063,129,2233,-425,-1019,-583,-330,-176,190,-460
2,204068,127,2233,-426,-1025,-584,-332,-176,190,-460
2,204075,127,2233,-426,-1025,-584,-332,-176,190,-460
2,204080,127,2233,-426,-1025,-584,-332,-176,190,-460
2,204086,127,2233,-426,-1025,-584,-332,-176,190,-460
2,204091,126,2234,-418,-1026,-578,-337,-176,190,-460
2,204096,126,2234,-418,-1026,-578,-337,-176,190,-460
2,204102,126,2234,-418,-1026,-578,-337,-176,190,-460
2,204107,126,2234,-418,-1026,-578,-337,-176,190,-460
2,204113,127,2237,-422,-1029,-584,-324,-172,190,-450
2,204120,127,2237,-422,-1029,-584,-324,-172,190,-450
2,204126,127,2237,-422,-1029,-584,-324,-172,190,-450
2,204130,125,2234,-422,-1024,-579,-329,-172,190,-450
2,204136,125,2234,-422,-1024,-579,-329,-172,190,-450
2,204141,125,2234,-422,-1024,-579,-329,-172,190,-450
2,204147,125,2234,-422,-1024,-579,-329,-172,190,-450
2,204152,127,2238,-427,-1025,-583,-325,-172,190,-450
2,204158,127,2238,-427,-1025,-583,-325,-172,190,-450
2,204164,127,2238,-427,-1025,-583,-325,-172,190,-450
2,204169,124,2235,-425,-1021,-580,-317,-172,190,-450
2,204174,124,2235,-425,-1021,-580,-317,-172,190,-450
2,204180,124,2235,-425,-1021,-580,-317,-172,190,-450
2,204185,124,2235,-425,-1021,-580,-317,-172,190,-450
2,204190,125,2234,-429,-1024,-574,-323,-172,190,-450
2,204196,125,2234,-429,-1024,-574,-323,-172,190,-450
2,204201,125,2234,-429,-1024,-574,-323,-172,190,-450
2,204208,125,2234,-429,-1024,-574,-323,-172,190,-450
2,204213,124,2235,-425,-1023,-579,-326,-172,190,-450
2,204218,124,2235,-425,-1023,-579,-326,-172,190,-450
2,204224,124,2235,-425,-1023,-579,-326,-172,190,-450
2,204229,126,2236,-434,-1027,-581,-327,-172,190,-450
2,204234,126,2236,-434,-1027,-581,-327,-172,190,-450
2,204241,126,2236,-434,-1027,-581,-327,-172,190,-450
2,204247,126,2236,-434,-1027,-581,-327,-172,190,-450
2,204253,126,2237,-421,-1015,-579,-327,-168,186,-454
2,204257,126,2237,-421,-1015,-579,-327,-168,186,-454
2,204263,126,2237,-421,-1015,-579,-327,-168,186,-454
2,204268,126,2236,-420,-1024,-575,-325,-168,186,-454
2,204274,126,2236,-420,-1024,-575,-325,-168,186,-454
2,204279,126,2236,-420,-1024,-575,-325,-168,186,-454
2,204285,126,2236,-420,-1024,-575,-325,-168,186,-454
2,204291,126,2234,-423,-1015,-574,-329,-168,186,-454
2,204296,126,2234,-423,-1015,-574,-329,-168,186,-454
2,204302,126,2234,-423,-1015,-574,-329,-168,186,-454
2,204307,126,2234,-423,-1015,-574,-329,-168,186,-454
2,204313,125,2238,-423,-1018,-585,-332,-168,186,-454
2,204319,125,2238,-423,-1018,-585,-332,-168,186,-454
2,204325,125,2238,-423,-1018,-585,-332,-168,186,-454
2,204331,126,2234,-425,-1018,-581,-334,-168,186,-454
2,204337,126,2234,-425,-1018,-581,-334,-168,186,-454
2,204343,126,2234,-425,-1018,-581,-334,-168,186,-454
2,204348,126,2234,-425,-1018,-581,-334,-168,186,-454
2,204353,125,2237,-426,-1014,-581,-327,-168,186,-454
2,204359,125,2237,-426,-1014,-581,-327,-168,186,-454
2,204364,125,2237,-426,-1014,-581,-327,-168,186,-454
2,204370,125,2237,-423,-1020,-578,-326,-163,191,-455
2,204376,125,2237,-423,-1020,-578,-326,-163,191,-455
2,204382,125,2237,-423,-1020,-578,-326,-163,191,-455
2,204388,125,2237,-423,-1020,-578,-326,-163,191,-455
2,204393,125,2236,-422,-1017,-573,-332,-163,191,-455
2,204401,125,2236,-422,-1017,-573,-332,-163,191,-455
2,204408,127,2235,-420,-1028,-580,-327,-163,191,-455
2,204414,127,2235,-420,-1028,-580,-327,-163,191,-455
2,204421,127,2235,-420,-1028,-580,-327,-163,191,-455
2,204426,127,2235,-420,-1028,-580,-327,-163,191,-455
2,204431,127,2236,-425,-1026,-583,-325,-163,191,-455
2,204437,127,2236,-425,-1026,-583,-325,-163,191,-455
2,204442,127,2236,-425,-1026,-583,-325,-163,191,-455
2,204448,125,2233,-427,-1024,-573,-328,-163,191,-455
2,204453,125,2233,-427,-1024,-573,-328,-163,191,-455
2,204460,125,2233,-427,-1024,-573,-328,-163,191,-455
2,204465,125,2233,-427,-1024,-573,-328,-163,191,-455
2,204471,127,2235,-432,-1014,-569,-328,-163,191,-455
2,204476,127,2235,-432,-1014,-569,-328,-163,191,-455
2,204482,127,2235,-432,-1014,-569,-328,-163,191,-455
2,204487,127,2235,-432,-1014,-569,-328,-163,191,-455
2,204492,125,2235,-428,-1016,-577,-335,-168,186,-454
2,204498,125,2235,-428,-1016,-577,-335,-168,186,-454
2,204504,125,2235,-428,-1016,-577,-335,-168,186,-454
2,204510,128,2236,-420,-1024,-579,-336,-168,186,-454
2,204516,128,2236,-420,-1024,-579,-336,-168,186,-454
2,204521,128,2236,-420,-1024,-579,-336,-168,186,-454
2,204527,128,2236,-420,-1024,-579,-336,-168,186,-454
2,204532,126,2234,-424,-1020,-577,-329,-168,186,-454
2,204537,126,2234,-424,-1020,-577,-329,-168,186,-454
2,204542,126,2234,-424,-1020,-577,-329,-168,186,-454
2,204549,126,2235,-430,-1023,-574,-323,-168,186,-454
2,204554,126,2235,-430,-1023,-574,-323,-168,186,-454
2,204560,126,2235,-430,-1023,-574,-323,-168,186,-454
2,204565,126,2235,-430,-1023,-574,-323,-168,186,-454
2,204571,123,2233,-429,-1024,-577,-329,-168,186,-454
2,204576,123,2233,-429,-1024,-577,-329,-168,186,-454
2,204581,123,2233,-429,-1024,-577,-329,-168,186,-454
2,204587,123,2233,-429,-1024,-577,-329,-168,186,-454
2,204593,126,2236,-431,-1026,-577,-330,-168,186,-454
2,204598,126,2236,-431,-1026,-577,-330,-168,186,-454
2,204604,126,2236,-431,-1026,-577,-330,-168,186,-454
2,204609,126,2236,-427,-1031,-577,-327,-168,186,-454
2,204615,126,2236,-427,-1031,-577,-327,-168,186,-454
2,204619,126,2236,-427,-1031,-577,-327,-168,186,-454
2,204625,126,2236,-427,-1031,-577,-327,-168,186,-454
2,204631,126,2235,-423,-1021,-581,-331,-172,196,-460
2,204636,126,2235,-423,-1021,-581,-331,-172,196,-460
2,204641,126,2235,-423,-1021,-581,-331,-172,196,-460
2,204647,126,2235,-423,-1021,-581,-331,-172,196,-460
2,204652,125,2236,-428,-1020,-579,-327,-172,196,-460
2,204657,125,2236,-428,-1020,-579,-327,-172,196,-460
2,204663,125,2236,-428,-1020,-579,-327,-172,196,-460
2,204669,124,2236,-427,-1019,-575,-324,-172,196,-460
2,204675,124,2236,-427,-1019,-575,-324,-172,196,-460
2,204681,124,2236,-427,-1019,-575,-324,-172,196,-460
2,204686,124,2236,-427,-1019,-575,-324,-172,196,-460
2,204692,128,2237,-425,-1029,-581,-322,-172,196,-460
2,204697,128,2237,-425,-1029,-581,-322,-172,196,-460
2,204702,128,2237,-425,-1029,-581,-322,-172,196,-460
2,204708,128,2237,-425,-1029,-581,-322,-172,196,-460
2,204713,127,2234,-428,-1018,-573,-324,-172,196,-460
2,204720,127,2234,-428,-1018,-573,-324,-172,196,-460
2,204725,127,2234,-428,-1018,-573,-324,-172,196,-460
2,204731,123,2235,-424,-1025,-571,-329,-172,196,-460
2,204736,123,2235,-424,-1025,-571,-329,-172,196,-460
2,204741,123,2235,-424,-1025,-571,-329,-172,196,-460
2,204746,123,2235,-424,-1025,-571,-329,-172,196,-460
2,204751,126,2232,-425,-1025,-576,-332,-165,191,-455
2,204758,126,2232,-425,-1025,-576,-332,-165,191,-455
2,204763,126,2232,-425,-1025,-576,-332,-165,191,-455
2,204768,126,2232,-425,-1025,-576,-332,-165,191,-455
2,204774,125,2234,-423,-1025,-570,-319,-165,191,-455
2,204779,125,2234,-423,-1025,-570,-319,-165,191,-455
2,204784,125,2234,-423,-1025,-570,-319,-165,191,-455
2,204789,126,2234,-422,-1026,-578,-325,-165,191,-455
2,204794,126,2234,-422,-1026,-578,-325,-165,191,-455
2,204800,126,2234,-422,-1026,-578,-325,-165,191,-455
2,204806,126,2234,-422,-1026,-578,-325,-165,191,-455
2,204812,128,2237,-426,-1010,-578,-327,-165,191,-455
2,204817,128,2237,-426,-1010,-578,-327,-165,191,-455
2,204822,128,2237,-426,-1010,-578,-327,-165,191,-455
2,204828,128,2237,-426,-1010,-578,-327,-165,191,-455
2,204833,124,2236,-430,-1024,-577,-330,-165,191,-455
2,204838,124,2236,-430,-1024,-577,-330,-165,191,-455
2,204845,124,2236,-430,-1024,-577,-330,-165,191,-455
2,204850,124,2234,-430,-1025,-579,-326,-165,191,-455
2,204856,124,2234,-430,-1025,-579,-326,-165,191,-455
2,204861,124,2234,-430,-1025,-579,-326,-165,191,-455
2,204866,124,2234,-430,-1025,-579,-326,-165,191,-455
2,204872,125,2234,-429,-1016,-584,-327,-165,191,-455
2,204877,125,2234,-429,-1016,-584,-327,-165,191,-455
2,204882,125,2234,-429,-1016,-584,-327,-165,191,-455
2,204888,125,2234,-429,-1016,-584,-327,-165,191,-455
2,204894,127,2236,-424,-1022,-582,-321,-166,194,-454
2,204899,127,2236,-424,-1022,-582,-321,-166,194,-454
2,204905,127,2236,-424,-1022,-582,-321,-166,194,-454
2,204910,126,2236,-428,-1026,-588,-329,-166,194,-454
2,204916,126,2236,-428,-1026,-588,-329,-166,194,-454
2,204922,126,2236,-428,-1026,-588,-329,-166,194,-454
2,204926,126,2236,-428,-1026,-588,-329,-166,194,-454
2,204933,127,2238,-431,-1018,-581,-326,-166,194,-454
2,204938,127,2238,-431,-1018,-581,-326,-166,194,-454
2,204943,127,2238,-431,-1018,-581,-326,-166,194,-454
2,204949,127,2238,-431,-1018,-581,-326,-166,194,-454
2,204954,129,2236,-424,-1020,-570,-322,-166,194,-454
2,204959,129,2236,-424,-1020,-570,-322,-166,194,-454
2,204965,129,2236,-424,-1020,-570,-322,-166,194,-454
2,204971,128,2237,-424,-1027,-577,-322,-166,194,-454
2,204976,128,2237,-424,-1027,-577,-322,-166,194,-454
2,204982,128,2237,-424,-1027,-577,-322,-166,194,-454
2,204987,128,2237,-424,-1027,-577,-322,-166,194,-454
2,204993,126,2238,-431,-1028,-579,-329,-166,194,-454
2,204998,126,2238,-431,-1028,-579,-329,-166,194,-454
2,205003,126,2238,-431,-1028,-579,-329,-166,194,-454
2,205008,126,2238,-431,-1028,-579,-329,-166,194,-454
2,205015,126,2237,-424,-1018,-575,-319,-165,191,-447
2,205021,126,2237,-424,-1018,-575,-319,-165,191,-447
2,205026,126,2237,-424,-1018,-575,-319,-165,191,-447
2,205032,125,2234,-424,-1017,-578,-320,-165,191,-447
2,205037,125,2234,-424,-1017,-578,-320,-165,191,-447
2,205043,125,2234,-424,-1017,-578,-320,-165,191,-447
2,205049,124,2236,-425,-1024,-581,-328,-165,191,-447
2,205056,124,2236,-425,-1024,-581,-328,-165,191,-447
2,205062,124,2236,-425,-1024,-581,-328,-165,191,-447
2,205067,124,2236,-425,-1024,-581,-328,-165,191,-447
2,205072,123,2237,-425,-1025,-576,-329,-165,191,-447
2,205077,123,2237,-425,-1025,-576,-329,-165,191,-447
2,205083,123,2237,-425,-1025,-576,-329,-165,191,-447
2,205088,123,2237,-425,-1025,-576,-329,-165,191,-447
2,205094,125,2233,-425,-1026,-576,-325,-165,191,-447
2,205101,125,2233,-425,-1026,-576,-325,-165,191,-447
2,205106,125,2233,-425,-1026,-576,-325,-165,191,-447
2,205111,125,2236,-422,-1025,-578,-324,-165,191,-447
2,205116,125,2236,-422,-1025,-578,-324,-165,191,-447
2,205122,125,2236,-422,-1025,-578,-324,-165,191,-447
2,205127,125,2236,-422,-1025,-578,-324,-165,191,-447
2,205133,125,2234,-422,-1020,-570,-328,-165,189,-457
2,205138,125,2234,-422,-1020,-570,-328,-165,189,-457
2,205145,125,2234,-422,-1020,-570,-328,-165,189,-457
2,205150,127,2238,-422,-1028,-575,-328,-165,189,-457
2,205155,127,2238,-422,-1028,-575,-328,-165,189,-457
2,205161,127,2238,-422,-1028,-575,-328,-165,189,-457
2,205166,127,2238,-422,-1028,-575,-328,-165,189,-457
2,205172,124,2235,-425,-1021,-582,-334,-165,189,-457
2,205178,124,2235,-425,-1021,-582,-334,-165,189,-457
2,205184,124,2235,-425,-1021,-582,-334,-165,189,-457
2,205189,124,2235,-425,-1021,-582,-334,-165,189,-457
2,205194,126,2237,-427,-1021,-584,-334,-165,189,-457
2,205199,126,2237,-427,-1021,-584,-334,-165,189,-457
2,205205,126,2237,-427,-1021,-584,-334,-165,189,-457
2,205210,126,2235,-423,-1017,-578,-330,-165,189,-457
2,205216,126,2235,-423,-1017,-578,-330,-165,189,-457
2,205221,126,2235,-423,-1017,-578,-330,-165,189,-457
2,205228,126,2235,-423,-1017,-578,-330,-165,189,-457
2,205233,125,2233,-433,-1023,-571,-326,-165,189,-457
2,205238,125,2233,-433,-1023,-571,-326,-165,189,-457
2,205243,125,2233,-433,-1023,-571,-326,-165,189,-457
2,205249,125,2233,-433,-1023,-571,-326,-165,189,-457
2,205254,126,2232,-427,-1017,-574,-331,-165,189,-457
2,205260,126,2232,-427,-1017,-574,-331,-165,189,-457
2,205266,126,2232,-427,-1017,-574,-331,-165,189,-457
2,205272,126,2233,-422,-1025,-582,-328,-167,191,-445
2,205277,126,2233,-422,-1025,-582,-328,-167,191,-445
2,205282,126,2233,-422,-1025,-582,-328,-167,191,-445
2,205288,126,2233,-422,-1025,-582,-328,-167,191,-445
2,205293,126,2235,-422,-1014,-581,-320,-167,191,-445
2,205299,126,2235,-422,-1014,-581,-320,-167,191,-445
2,205304,126,2235,-422,-1014,-581,-320,-167,191,-445
2,205309,124,2233,-429,-1022,-579,-321,-167,191,-445
2,205316,124,2233,-429,-1022,-579,-321,-167,191,-445
2,205321,124,2233,-429,-1022,-579,-321,-167,191,-445
2,205326,124,2233,-429,-1022,-579,-321,-167,191,-445
2,205332,127,2236,-428,-1017,-574,-330,-167,191,-445
2,205337,127,2236,-428,-1017,-574,-330,-167,191,-445
2,205343,127,2236,-428,-1017,-574,-330,-167,191,-445
2,205348,127,2236,-428,-1017,-574,-330,-167,191,-445
2,205353,127,2233,-424,-1022,-580,-329,-167,191,-445
2,205359,127,2233,-424,-1022,-580,-329,-167,191,-445
2,205365,127,2233,-424,-1022,-580,-329,-167,191,-445
2,205370,130,2236,-424,-1016,-574,-323,-167,191,-445
2,205376,130,2236,-424,-1016,-574,-323,-167,191,-445
2,205381,130,2236,-424,-1016,-574,-323,-167,191,-445
2,205387,130,2236,-424,-1016,-574,-323,-167,191,-445
2,205392,126,2233,-421,-1018,-582,-318,-173,189,-453
2,205399,126,2233,-421,-1018,-582,-318,-173,189,-453
2,205404,126,2233,-421,-1018,-582,-318,-173,189,-453
2,205410,126,2233,-421,-1018,-582,-318,-173,189,-453
2,205415,126,2235,-424,-1019,-578,-327,-173,189,-453
2,205421,126,2235,-424,-1019,-578,-327,-173,189,-453
2,205426,126,2235,-424,-1019,-578,-327,-173,189,-453
2,205431,125,2233,-425,-1018,-576,-328,-173,189,-453
2,205437,125,2233,-425,-1018,-576,-328,-173,189,-453
2,205443,125,2233,-425,-1018,-576,-328,-173,189,-453
2,205448,125,2233,-425,-1018,-576,-328,-173,189,-453
2,205454,127,2237,-427,-1024,-582,-323,-173,189,-453
2,205459,127,2237,-427,-1024,-582,-323,-173,189,-453
2,205464,127,2237,-427,-1024,-582,-323,-173,189,-453
2,205470,126,2230,-420,-1027,-575,-328,-173,189,-453
2,205475,126,2230,-420,-1027,-575,-328,-173,189,-453
2,205479,126,2230,-420,-1027,-575,-328,-173,189,-453
2,205486,126,2230,-420,-1027,-575,-328,-173,189,-453
2,205491,127,2237,-424,-1022,-578,-327,-173,189,-453
2,205497,127,2237,-424,-1022,-578,-327,-173,189,-453
2,205502,127,2237,-424,-1022,-578,-327,-173,189,-453
2,205507,127,2237,-424,-1022,-578,-327,-173,189,-453
2,205513,126,2238,-426,-1009,-577,-327,-173,189,-453
2,205519,126,2238,-426,-1009,-577,-327,-173,189,-453
2,205524,126,2238,-426,-1009,-577,-327,-173,189,-453
2,205531,125,2233,-424,-1006,-575,-325,-167,185,-445
2,205536,125,2233,-424,-1006,-575,-325,-167,185,-445
2,205541,125,2233,-424,-1006,-575,-325,-167,185,-445
2,205546,125,2233,-424,-1006,-575,-325,-167,185,-445
2,205552,128,2234,-428,-1019,-580,-324,-167,185,-445
2,205557,128,2234,-428,-1019,-580,-324,-167,185,-445
2,205562,128,2234,-428,-1019,-580,-324,-167,185,-445
2,205568,128,2234,-428,-1019,-580,-324,-167,185,-445
2,205574,125,2237,-426,-1013,-581,-322,-167,185,-445
2,205579,125,2237,-426,-1013,-581,-322,-167,185,-445
2,205585,125,2237,-426,-1013,-581,-322,-167,185,-445
2,205590,125,2237,-426,-1013,-581,-322,-167,185,-445
2,205595,126,2236,-427,-1020,-580,-327,-167,185,-445
2,205600,126,2236,-427,-1020,-580,-327,-167,185,-445
2,205606,126,2236,-427,-1020,-580,-327,-167,185,-445
2,205612,128,2235,-431,-1021,-573,-328,-167,185,-445
2,205618,128,2235,-431,-1021,-573,-328,-167,185,-445
2,205623,128,2235,-431,-1021,-573,-328,-167,185,-445
2,205628,128,2235,-431,-1021,-573,-328,-167,185,-445
2,205634,128,2233,-426,-1021,-573,-322,-167,185,-445
2,205639,128,2233,-426,-1021,-573,-322,-167,185,-445
2,205644,128,2233,-426,-1021,-573,-322,-167,185,-445
2,205650,126,2239,-419,-1019,-573,-319,-169,191,-453
2,205656,126,2239,-419,-1019,-573,-319,-169,191,-453
2,205662,126,2239,-419,-1019,-573,-319,-169,191,-453
2,205667,126,2239,-419,-1019,-573,-319,-169,191,-453
2,205672,126,2239,-419,-1019,-573,-319,-169,191,-453
2,205678,126,2239,-419,-1019,-573,-319,-169,191,-453
2,205683,126,2239,-419,-1019,-573,-319,-169,191,-453
2,205688,126,2239,-419,-1019,-573,-319,-169,191,-453
2,205694,128,2234,-422,-1022,-578,-329,-169,191,-453
2,205700,128,2234,-422,-1022,-578,-329,-169,191,-453
2,205705,128,2234,-422,-1022,-578,-329,-169,191,-453
2,205710,125,2235,-424,-1019,-583,-328,-169,191,-453
2,205715,125,2235,-424,-1019,-583,-328,-169,191,-453
2,205721,125,2235,-424,-1019,-583,-328,-169,191,-453
2,205726,125,2235,-424,-1019,-583,-328,-169,191,-453
2,205731,128,2235,-426,-1023,-583,-320,-169,191,-453
2,205736,128,2235,-426,-1023,-583,-320,-169,191,-453
2,205742,128,2235,-426,-1023,-583,-320,-169,191,-453
2,205748,128,2235,-426,-1023,-583,-320,-169,191,-453
2,205753,125,2235,-427,-1016,-578,-323,-169,191,-453
2,205759,125,2235,-427,-1016,-578,-323,-169,191,-453
2,205764,125,2235,-427,-1016,-578,-323,-169,191,-453
2,205770,125,2237,-428,-1020,-578,-329,-169,191,-453
2,205776,125,2237,-428,-1020,-578,-329,-169,189,-453
2,205782,125,2237,-428,-1020,-578,-329,-169,189,-453
2,205788,125,2237,-428,-1020,-578,-329,-169,189,-453
2,205793,127,2233,-425,-1030,-574,-327,-169,189,-453
2,205798,127,2233,-425,-1030,-574,-327,-169,189,-453
2,205804,127,2233,-425,-1030,-574,-327,-169,189,-453
2,205809,127,2233,-425,-1030,-574,-327,-169,189,-453
2,205814,129,2233,-427,-1019,-575,-323,-169,189,-453
2,205819,129,2233,-427,-1019,-575,-323,-169,189,-453
2,205825,129,2233,-427,-1019,-575,-323,-169,189,-453
2,205830,128,2236,-430,-1022,-586,-325,-169,189,-453
2,205836,128,2236,-430,-1022,-586,-325,-169,189,-453
2,205841,128,2236,-430,-1022,-586,-325,-169,189,-453
2,205847,128,2236,-430,-1022,-586,-325,-169,189,-453
2,205852,127,2235,-424,-1023,-580,-332,-169,189,-453
2,205857,127,2235,-424,-1023,-580,-332,-169,189,-453
2,205863,127,2235,-424,-1023,-580,-332,-169,189,-453
2,205869,127,2235,-424,-1023,-580,-332,-169,189,-453
2,205875,126,2234,-427,-1016,-576,-325,-169,189,-453
2,205880,126,2234,-427,-1016,-576,-325,-169,189,-453
2,205885,126,2234,-427,-1016,-576,-325,-169,189,-453
2,205891,126,2234,-425,-1025,-577,-332,-169,189,-453
2,205896,126,2234,-425,-1025,-577,-332,-169,189,-453
2,205901,126,2234,-425,-1025,-577,-332,-169,189,-453
2,205907,126,2234,-425,-1025,-577,-332,-169,189,-453
2,205913,128,2235,-424,-1022,-578,-323,-173,197,-461
2,205919,128,2235,-424,-1022,-578,-323,-173,197,-461
2,205924,128,2235,-424,-1022,-578,-323,-173,197,-461
2,205929,128,2235,-424,-1022,-578,-323,-173,197,-461
2,205935,124,2237,-424,-1024,-586,-326,-173,197,-461
2,205940,124,2237,-424,-1024,-586,-326,-173,197,-461
2,205945,124,2237,-424,-1024,-586,-326,-173,197,-461
2,205952,128,2235,-427,-1028,-578,-334,-173,197,-461
2,205958,128,2235,-427,-1028,-578,-334,-173,197,-461
2,205964,128,2235,-427,-1028,-578,-334,-173,197,-461
2,205969,128,2235,-427,-1028,-578,-334,-173,197,-461
2,205974,127,2236,-423,-1015,-581,-324,-173,197,-461
2,205979,127,2236,-423,-1015,-581,-324,-173,197,-461
2,205985,127,2236,-423,-1015,-581,-324,-173,197,-461
2,205990,126,2234,-426,-1022,-580,-323,-173,197,-461
2,205996,126,2234,-426,-1022,-580,-323,-173,197,-461
2,206002,126,2234,-426,-1022,-580,-323,-173,197,-461
2,206007,126,2234,-426,-1022,-580,-323,-173,197,-461
2,206013,125,2237,-427,-1027,-579,-327,-173,197,-461
2,206018,125,2237,-427,-1027,-579,-327,-173,197,-461
2,206023,125,2237,-427,-1027,-579,-327,-173,197,-461
2,206029,125,2237,-427,-1027,-579,-327,-173,197,-461
2,206034,125,2238,-422,-1023,-575,-330,-172,186,-464
2,206040,125,2238,-422,-1023,-575,-330,-172,186,-464
2,206047,125,2238,-422,-1023,-575,-330,-172,186,-464
2,206052,127,2234,-421,-1023,-576,-323,-172,186,-464
2,206057,127,2234,-421,-1023,-576,-323,-172,186,-464
2,206063,127,2234,-421,-1023,-576,-323,-172,186,-464
2,206069,127,2234,-421,-1023,-576,-323,-172,186,-464
2,206074,126,2233,-426,-1016,-580,-329,-172,186,-464
2,206080,126,2233,-426,-1016,-580,-329,-172,186,-464
2,206085,126,2233,-426,-1016,-580,-329,-172,186,-464
2,206090,126,2233,-426,-1016,-580,-329,-172,186,-464
2,206096,124,2234,-428,-1017,-572,-335,-172,186,-464
2,206101,124,2234,-428,-1017,-572,-335,-172,186,-464
2,206107,124,2234,-428,-1017,-572,-335,-172,186,-464
2,206112,123,2233,-427,-1022,-571,-324,-172,186,-464
2,206117,123,2233,-427,-1022,-571,-324,-172,186,-464
2,206123,123,2233,-427,-1022,-571,-324,-172,186,-464
2,206128,123,2233,-427,-1022,-571,-324,-172,186,-464
2,206133,126,2235,-425,-1021,-578,-324,-172,186,-464
2,206138,126,2235,-425,-1021,-578,-324,-172,186,-464
2,206143,126,2235,-425,-1021,-578,-324,-172,186,-464
2,206149,126,2235,-425,-1021,-578,-324,-172,186,-464
2,206154,125,2240,-427,-1020,-578,-324,-172,186,-464
2,206159,125,2240,-427,-1020,-578,-324,-172,186,-464
2,206164,125,2240,-427,-1020,-578,-324,-172,186,-464
2,206171,127,2234,-421,-1019,-581,-327,-171,191,-451
2,206176,127,2234,-421,-1019,-581,-327,-171,191,-451
2,206182,127,2234,-421,-1019,-581,-327,-171,191,-451
2,206187,127,2234,-421,-1019,-581,-327,-171,191,-451
2,206193,127,2235,-423,-1018,-578,-327,-171,191,-451
2,206198,127,2235,-423,-1018,-578,-327,-171,191,-451
2,206204,127,2235,-423,-1018,-578,-327,-171,191,-451
2,206210,127,2235,-423,-1018,-578,-327,-171,191,-451
2,206216,126,2233,-425,-1014,-570,-325,-171,191,-451
2,206222,126,2233,-425,-1014,-570,-325,-171,191,-451
2,206227,126,2233,-425,-1014,-570,-325,-171,191,-451
2,206232,126,2232,-427,-1017,-577,-330,-171,191,-451
2,206238,126,2232,-427,-1017,-577,-330,-171,191,-451
2,206243,126,2232,-427,-1017,-577,-330,-171,191,-451
2,206248,126,2232,-427,-1017,-577,-330,-171,191,-451
2,206255,126,2237,-426,-1016,-577,-326,-171,191,-451
2,206260,126,2237,-426,-1016,-577,-326,-171,191,-451
2,206266,126,2237,-426,-1016,-577,-326,-171,191,-451
2,206271,128,2235,-431,-1020,-577,-323,-171,191,-451
2,206276,128,2235,-431,-1020,-577,-323,-171,191,-451
2,206282,128,2235,-431,-1020,-577,-323,-171,191,-451
2,206287,128,2235,-431,-1020,-577,-323,-171,191,-451
2,206294,127,2233,-425,-1024,-579,-327,-170,196,-462
2,206299,127,2233,-425,-1024,-579,-327,-170,196,-462
2,206305,127,2233,-425,-1024,-579,-327,-170,196,-462
2,206310,127,2233,-425,-1024,-579,-327,-170,196,-462
2,206315,127,2233,-425,-1025,-577,-334,-170,196,-462
2,206320,127,2233,-425,-1025,-577,-334,-170,196,-462
2,206325,127,2233,-425,-1025,-577,-334,-170,196,-462
2,206330,127,2233,-425,-1025,-577,-334,-170,196,-462
2,206336,124,2236,-425,-1024,-583,-325,-170,196,-462
2,206342,124,2236,-425,-1024,-583,-325,-170,196,-462
2,206348,124,2236,-425,-1024,-583,-325,-170,196,-462
2,206353,124,2238,-423,-1020,-575,-330,-170,196,-462
2,206358,124,2238,-423,-1020,-575,-330,-170,196,-462
2,206364,124,2238,-423,-1020,-575,-330,-170,196,-462
2,206369,124,2238,-423,-1020,-575,-330,-170,196,-462
2,206374,127,2236,-428,-1022,-575,-325,-170,196,-462
2,206381,127,2236,-428,-1022,-575,-325,-170,196,-462
2,206386,127,2236,-428,-1022,-575,-325,-170,196,-462
2,206391,127,2236,-427,-1020,-582,-322,-170,196,-462
2,206397,127,2236,-427,-1020,-582,-322,-170,196,-462
2,206402,127,2236,-427,-1020,-582,-322,-170,196,-462
2,206408,127,2236,-427,-1020,-582,-322,-170,196,-462
2,206413,125,2238,-426,-1019,-574,-323,-168,190,-456
2,206418,125,2238,-426,-1019,-574,-323,-168,190,-456
2,206424,125,2238,-426,-1019,-574,-323,-168,190,-456
2,206430,125,2238,-426,-1019,-574,-323,-168,190,-456
2,206435,125,2235,-424,-1013,-581,-325,-168,190,-456
2,206441,125,2235,-424,-1013,-581,-325,-168,190,-456
2,206446,125,2235,-424,-1013,-581,-325,-168,190,-456
2,206452,127,2233,-420,-1014,-575,-324,-168,190,-456
2,206457,127,2233,-420,-1014,-575,-324,-168,190,-456
2,206462,127,2233,-420,-1014,-575,-324,-168,190,-456
2,206468,127,2233,-420,-1014,-575,-324,-168,190,-456
2,206474,126,2235,-420,-1021,-576,-333,-168,190,-456
2,206479,126,2235,-420,-1021,-576,-333,-168,190,-456
2,206485,126,2235,-420,-1021,-576,-333,-168,190,-456
2,206490,126,2235,-420,-1021,-576,-333,-168,190,-456
2,206496,128,2237,-428,-1018,-581,-330,-168,190,-456
2,206501,128,2237,-428,-1018,-581,-330,-168,190,-456
2,206507,128,2237,-428,-1018,-581,-330,-168,190,-456
2,206512,126,2233,-426,-1023,-575,-325,-168,190,-456
2,206517,126,2233,-426,-1023,-575,-325,-168,190,-456
2,206523,126,2233,-426,-1023,-575,-325,-168,190,-456
2,206528,126,2233,-426,-1023,-575,-325,-168,190,-456
2,206534,127,2236,-428,-1019,-577,-327,-168,190,-456
2,206539,127,2236,-428,-1019,-577,-327,-168,190,-456
2,206545,127,2236,-428,-1019,-577,-327,-168,190,-456
2,206551,127,2236,-428,-1019,-577,-327,-168,190,-456
2,206557,128,2238,-422,-1022,-573,-329,-170,194,-454
2,206562,128,2238,-422,-1022,-573,-329,-170,194,-454
2,206568,128,2238,-422,-1022,-573,-329,-170,194,-454
2,206573,128,2234,-419,-1021,-568,-334,-170,194,-454
2,206578,128,2234,-419,-1021,-568,-334,-170,194,-454
2,206583,128,2234,-419,-1021,-568,-334,-170,194,-454
2,206588,128,2234,-419,-1021,-568,-334,-170,194,-454
2,206595,131,2236,-427,-1030,-574,-330,-170,194,-454
2,206600,131,2236,-427,-1030,-574,-330,-170,194,-454
2,206605,131,2236,-427,-1030,-574,-330,-170,194,-454
2,206611,130,2237,-430,-1021,-574,-322,-170,194,-454
2,206616,130,2237,-430,-1021,-574,-322,-170,194,-454
2,206621,130,2237,-430,-1021,-574,-322,-170,194,-454
2,206627,130,2237,-430,-1021,-574,-322,-170,194,-454
2,206632,127,2238,-427,-1019,-578,-325,-170,194,-454
2,206639,127,2238,-427,-1019,-578,-325,-170,194,-454
2,206644,127,2238,-427,-1019,-578,-325,-170,194,-454
2,206650,127,2238,-427,-1019,-578,-325,-170,194,-454
2,206654,129,2237,-423,-1021,-575,-323,-170,194,-454
2,206660,129,2237,-423,-1021,-575,-323,-170,194,-454
2,206665,129,2237,-423,-1021,-575,-323,-170,194,-454
2,206670,129,2237,-423,-1021,-575,-323,-170,194,-454
2,206676,126,2234,-425,-1017,-583,-327,-168,182,-454
2,206682,126,2234,-425,-1017,-583,-327,-168,182,-454
2,206688,126,2234,-425,-1017,-583,-327,-168,182,-454
2,206694,123,2234,-426,-1023,-586,-327,-168,182,-454
2,206699,123,2234,-426,-1023,-586,-327,-168,182,-454
2,206704,123,2234,-426,-1023,-586,-327,-168,182,-454
2,206710,123,2234,-426,-1023,-586,-327,-168,182,-454
2,206715,123,2237,-427,-1026,-580,-330,-168,182,-454
2,206722,123,2237,-427,-1026,-580,-330,-168,182,-454
2,206728,123,2237,-427,-1026,-580,-330,-168,182,-454
2,206733,123,2237,-428,-1018,-579,-323,-168,182,-454
2,206739,123,2237,-428,-1018,-579,-323,-168,182,-454
2,206744,123,2237,-428,-1018,-579,-323,-168,182,-454
2,206749,123,2237,-428,-1018,-579,-323,-168,182,-454
2,206754,126,2236,-424,-1021,-576,-336,-168,182,-454
2,206760,126,2236,-424,-1021,-576,-336,-168,182,-454
2,206766,126,2236,-424,-1021,-576,-336,-168,182,-454
2,206771,126,2236,-424,-1021,-576,-336,-168,182,-454
2,206777,129,2238,-427,-1021,-577,-331,-168,182,-454
2,206783,129,2238,-427,-1021,-577,-331,-168,182,-454
2,206788,129,2238,-427,-1021,-577,-331,-168,182,-454
2,206793,125,2234,-426,-1019,-577,-333,-168,182,-454
2,206799,125,2234,-426,-1019,-577,-333,-168,182,-454
2,206804,125,2234,-426,-1019,-577,-333,-168,182,-454
2,206811,125,2234,-426,-1019,-577,-333,-168,182,-454
2,206816,122,2233,-427,-1020,-581,-327,-170,190,-448
2,206821,122,2233,-427,-1020,-581,-327,-170,190,-448
2,206827,122,2233,-427,-1020,-581,-327,-170,190,-448
2,206832,126,2234,-425,-1021,-581,-334,-170,190,-448
2,206837,126,2234,-425,-1021,-581,-334,-170,190,-448
2,206842,126,2234,-425,-1021,-581,-334,-170,190,-448
2,206848,126,2234,-425,-1021,-581,-334,-170,190,-448
2,206854,125,2234,-427,-1016,-574,-331,-170,190,-448
2,206859,125,2234,-427,-1016,-574,-331,-170,190,-448
2,206865,125,2234,-427,-1016,-574,-331,-170,190,-448
2,206870,125,2234,-427,-1016,-574,-331,-170,190,-448
2,206875,126,2236,-421,-1024,-575,-327,-170,190,-448
2,206881,126,2236,-421,-1024,-575,-327,-170,190,-448
2,206886,126,2236,-421,-1024,-575,-327,-170,190,-448
2,206892,128,2236,-425,-1021,-581,-323,-170,190,-448
2,206898,128,2236,-425,-1021,-581,-323,-170,190,-448
2,206903,128,2236,-425,-1021,-581,-323,-170,190,-448
2,206908,128,2236,-425,-1021,-581,-323,-170,190,-448
2,206914,127,2237,-432,-1029,-582,-324,-170,190,-448
2,206919,127,2237,-432,-1029,-582,-324,-170,190,-448
2,206925,127,2237,-432,-1029,-582,-324,-170,190,-448
2,206930,127,2237,-432,-1029,-582,-324,-170,190,-448
2,206936,126,2235,-424,-1027,-579,-325,-169,193,-449
2,206942,126,2235,-424,-1027,-579,-325,-169,193,-449
2,206947,126,2235,-424,-1027,-579,-325,-169,193,-449
2,206952,128,2236,-418,-1021,-579,-328,-169,193,-449
2,206957,128,2236,-418,-1021,-579,-328,-169,193,-449
2,206963,128,2236,-418,-1021,-579,-328,-169,193,-449
2,206968,128,2236,-418,-1021,-579,-328,-169,193,-449
2,206974,128,2238,-426,-1022,-577,-328,-169,193,-449
2,206980,128,2238,-426,-1022,-577,-328,-169,193,-449
2,206986,128,2238,-426,-1022,-577,-328,-169,193,-449
2,206991,128,2238,-426,-1022,-577,-328,-169,193,-449
2,206997,126,2236,-426,-1023,-581,-329,-169,193,-449
2,207002,126,2236,-426,-1023,-581,-329,-169,193,-449
2,207007,126,2236,-426,-1023,-581,-329,-169,193,-449
2,207013,125,2240,-428,-1021,-571,-325,-169,193,-449
2,207019,125,2240,-428,-1021,-571,-325,-169,193,-449
2,207025,125,2240,-428,-1021,-571,-325,-169,193,-449
2,207030,125,2240,-428,-1021,-571,-325,-169,193,-449
2,207035,126,2234,-427,-1020,-573,-318,-169,193,-449
2,207041,126,2234,-427,-1020,-573,-318,-169,193,-449
2,207046,126,2234,-427,-1020,-573,-318,-169,193,-449
2,207051,126,2234,-427,-1020,-573,-318,-169,193,-449
2,207057,128,2239,-432,-1016,-578,-323,-168,192,-456
2,207063,128,2239,-432,-1016,-578,-323,-168,192,-456
2,207068,128,2239,-432,-1016,-578,-323,-168,192,-456
2,207073,126,2234,-424,-1022,-572,-321,-168,192,-456
2,207078,126,2234,-424,-1022,-572,-321,-168,192,-456
2,207084,126,2234,-424,-1022,-572,-321,-168,192,-456
2,207089,126,2234,-424,-1022,-572,-321,-168,192,-456
2,207095,128,2235,-430,-1019,-571,-326,-168,192,-456
2,207099,128,2235,-430,-1019,-571,-326,-168,192,-456
2,207106,128,2235,-430,-1019,-571,-326,-168,192,-456
2,207111,128,2235,-430,-1019,-571,-326,-168,192,-456
2,207117,127,2234,-423,-1018,-577,-325,-168,192,-456
2,207122,127,2234,-423,-1018,-577,-325,-168,192,-456
2,207128,127,2234,-423,-1018,-577,-325,-168,192,-456
2,207133,128,2234,-421,-1016,-580,-325,-168,192,-456
2,207139,128,2234,-421,-1016,-580,-325,-168,192,-456
2,207144,128,2234,-421,-1016,-580,-325,-168,192,-456
2,207150,128,2234,-421,-1016,-580,-325,-168,192,-456
2,207155,128,2232,-427,-1017,-578,-326,-168,192,-456
2,207160,128,2232,-427,-1017,-578,-326,-168,192,-456
2,207166,128,2232,-427,-1017,-578,-326,-168,192,-456
2,207171,128,2232,-427,-1017,-578,-326,-168,192,-456
2,207176,126,2238,-426,-1020,-573,-330,-168,192,-456
2,207181,126,2238,-426,-1020,-573,-330,-168,192,-456
2,207187,126,2238,-426,-1020,-573,-330,-168,192,-456
2,207194,125,2235,-420,-1016,-569,-326,-163,185,-449
2,207199,125,2235,-420,-1016,-569,-326,-163,185,-449
2,207204,125,2235,-420,-1016,-569,-326,-163,185,-449
2,207210,125,2235,-420,-1016,-569,-326,-163,185,-449
2,207216,126,2236,-418,-1026,-570,-325,-163,185,-449
2,207221,126,2236,-418,-1026,-570,-325,-163,185,-449
2,207226,126,2236,-418,-1026,-570,-325,-163,185,-449
2,207232,127,2235,-422,-1019,-577,-325,-163,185,-449
2,207238,127,2235,-422,-1019,-577,-325,-163,185,-449
2,207243,127,2235,-422,-1019,-577,-325,-163,185,-449
2,207249,127,2235,-422,-1019,-577,-325,-163,185,-449
2,207254,125,2234,-424,-1023,-579,-332,-163,185,-449
2,207259,125,2234,-424,-1023,-579,-332,-163,185,-449
2,207264,125,2234,-424,-1023,-579,-332,-163,185,-449
2,207270,125,2234,-424,-1023,-579,-332,-163,185,-449
2,207276,126,2235,-429,-1020,-571,-326,-163,185,-449
2,207281,126,2235,-429,-1020,-571,-326,-163,185,-449
2,207286,126,2235,-429,-1020,-571,-326,-163,185,-449
2,207292,127,2233,-432,-1013,-573,-333,-163,185,-449
2,207297,127,2233,-432,-1013,-573,-333,-163,185,-449
2,207302,127,2233,-432,-1013,-573,-333,-163,185,-449
2,207308,127,2233,-432,-1013,-573,-333,-163,185,-449
2,207313,126,2235,-420,-1025,-581,-332,-168,190,-454
2,207319,126,2235,-420,-1025,-581,-332,-168,190,-454
2,207324,126,2235,-420,-1025,-581,-332,-168,190,-454
2,207329,126,2235,-420,-1025,-581,-332,-168,190,-454
2,207335,127,2237,-427,-1027,-577,-328,-168,190,-454
2,207340,127,2237,-427,-1027,-577,-328,-168,190,-454
2,207345,127,2237,-427,-1027,-577,-328,-168,190,-454
2,207351,127,2237,-427,-1027,-577,-328,-168,190,-454
2,207356,125,2235,-431,-1026,-582,-323,-168,190,-454
2,207362,125,2235,-431,-1026,-582,-323,-168,190,-454
2,207368,125,2235,-431,-1026,-582,-323,-168,190,-454
2,207373,123,2234,-423,-1025,-579,-324,-168,190,-454
2,207379,123,2234,-423,-1025,-579,-324,-168,190,-454
2,207383,123,2234,-423,-1025,-579,-324,-168,190,-454
2,207389,123,2234,-423,-1025,-579,-324,-168,190,-454
2,207394,127,2233,-426,-1022,-574,-322,-168,190,-454
2,207399,127,2233,-426,-1022,-574,-322,-168,190,-454
2,207405,127,2233,-426,-1022,-574,-322,-168,190,-454
2,207411,127,2233,-426,-1022,-574,-322,-168,190,-454
2,207416,129,2235,-424,-1015,-574,-325,-168,190,-454
2,207422,129,2235,-424,-1015,-574,-325,-168,190,-454
2,207427,129,2235,-424,-1015,-574,-325,-168,190,-454
2,207432,126,2234,-430,-1018,-582,-335,-168,190,-454
2,207437,126,2234,-430,-1018,-582,-335,-168,190,-454
2,207442,126,2234,-430,-1018,-582,-335,-168,190,-454
2,207448,126,2234,-430,-1018,-582,-335,-168,190,-454
2,207454,127,2236,-419,-1019,-580,-331,-169,187,-457
2,207459,127,2236,-419,-1019,-580,-331,-169,187,-457
2,207464,127,2236,-419,-1019,-580,-331,-169,187,-457
2,207469,127,2236,-419,-1019,-580,-331,-169,187,-457
2,207474,126,2235,-428,-1015,-580,-322,-169,187,-457
2,207480,126,2235,-428,-1015,-580,-322,-169,187,-457
2,207485,126,2235,-428,-1015,-580,-322,-169,187,-457
2,207491,126,2235,-428,-1015,-580,-322,-169,187,-457
2,207497,130,2234,-419,-1022,-573,-328,-169,187,-457
2,207502,130,2234,-419,-1022,-573,-328,-169,187,-457
2,207508,130,2234,-419,-1022,-573,-328,-169,187,-457
2,207513,127,2234,-423,-1022,-576,-327,-169,187,-457
2,207518,127,2234,-423,-1022,-576,-327,-169,187,-457
2,207524,127,2234,-423,-1022,-576,-327,-169,187,-457
2,207529,127,2234,-423,-1022,-576,-327,-169,187,-457
2,207535,128,2233,-424,-1024,-571,-328,-169,187,-457
2,207540,128,2233,-424,-1024,-571,-328,-169,187,-457
2,207545,128,2233,-424,-1024,-571,-328,-169,187,-457
2,207550,128,2233,-424,-1024,-571,-328,-169,187,-457
2,207556,131,2235,-430,-1025,-586,-328,-169,187,-457
2,207561,131,2235,-430,-1025,-586,-328,-169,187,-457
2,207567,131,2235,-430,-1025,-586,-328,-169,187,-457
2,207572,127,2235,-427,-1020,-575,-324,-169,187,-457
2,207578,127,2235,-427,-1020,-575,-324,-170,190,-456
2,207583,127,2235,-427,-1020,-575,-324,-170,190,-456
2,207589,127,2235,-427,-1020,-575,-324,-170,190,-456
2,207594,126,2233,-430,-1020,-575,-334,-170,190,-456
2,207600,126,2233,-430,-1020,-575,-334,-170,190,-456
2,207605,126,2233,-430,-1020,-575,-334,-170,190,-456
2,207611,126,2233,-430,-1020,-575,-334,-170,190,-456
2,207617,123,2236,-427,-1024,-576,-339,-170,190,-456
2,207622,123,2236,-427,-1024,-576,-339,-170,190,-456
2,207627,123,2236,-427,-1024,-576,-339,-170,190,-456
2,207633,128,2236,-427,-1027,-574,-328,-170,190,-456
2,207639,128,2236,-427,-1027,-574,-328,-170,190,-456
2,207644,128,2236,-427,-1027,-574,-328,-170,190,-456
2,207650,128,2236,-427,-1027,-574,-328,-170,190,-456
2,207656,128,2234,-427,-1022,-583,-321,-170,190,-456
2,207663,128,2234,-427,-1022,-583,-321,-170,190,-456
2,207668,128,2234,-427,-1022,-583,-321,-170,190,-456
2,207674,127,2234,-428,-1019,-583,-328,-170,190,-456
2,207679,127,2234,-428,-1019,-583,-328,-170,190,-456
2,207684,127,2234,-428,-1019,-583,-328,-170,190,-456
2,207690,127,2234,-428,-1019,-583,-328,-170,190,-456
2,207695,128,2237,-427,-1016,-584,-328,-168,190,-452
2,207700,128,2237,-427,-1016,-584,-328,-168,190,-452
2,207707,128,2237,-427,-1016,-584,-328,-168,190,-452
2,207712,128,2237,-427,-1016,-584,-328,-168,190,-452
2,207717,128,2236,-426,-1020,-585,-331,-168,190,-452
2,207723,128,2236,-426,-1020,-585,-331,-168,190,-452
2,207728,128,2236,-426,-1020,-585,-331,-168,190,-452
2,207733,128,2236,-426,-1020,-585,-331,-168,190,-452
2,207739,128,2236,-426,-1020,-585,-331,-168,190,-452
2,207745,128,2236,-426,-1020,-585,-331,-168,190,-452
2,207751,128,2236,-426,-1020,-585,-331,-168,190,-452
2,207756,129,2234,-429,-1018,-573,-334,-168,190,-452
2,207761,129,2234,-429,-1018,-573,-334,-168,190,-452
2,207766,129,2234,-429,-1018,-573,-334,-168,190,-452
2,207772,129,2234,-429,-1018,-573,-334,-168,190,-452
2,207777,130,2235,-431,-1029,-579,-330,-168,190,-452
2,207783,130,2235,-431,-1029,-579,-330,-168,190,-452
2,207789,130,2235,-431,-1029,-579,-330,-168,190,-452
2,207794,126,2234,-426,-1025,-577,-329,-168,190,-452
2,207799,126,2234,-426,-1025,-577,-329,-168,190,-452
2,207805,126,2234,-426,-1025,-577,-329,-168,190,-452
2,207810,126,2234,-426,-1025,-577,-329,-168,190,-452
2,207816,126,2234,-426,-1025,-577,-329,-168,190,-452
2,207821,126,2234,-426,-1025,-577,-329,-168,190,-452
2,207827,126,2234,-426,-1025,-577,-329,-168,190,-452
2,207833,126,2236,-422,-1026,-578,-325,-168,190,-452
2,207839,126,2236,-422,-1026,-578,-325,-169,185,-459
2,207845,126,2236,-422,-1026,-578,-325,-169,185,-459
2,207850,126,2236,-422,-1026,-578,-325,-169,185,-459
2,207855,126,2236,-420,-1032,-574,-325,-169,185,-459
2,207860,126,2236,-420,-1032,-574,-325,-169,185,-459
2,207866,126,2236,-420,-1032,-574,-325,-169,185,-459
2,207872,126,2236,-420,-1032,-574,-325,-169,185,-459
2,207877,126,2238,-424,-1026,-581,-321,-169,185,-459
2,207883,126,2238,-424,-1026,-581,-321,-169,185,-459
2,207888,126,2238,-424,-1026,-581,-321,-169,185,-459
2,207894,123,2233,-426,-1021,-578,-329,-169,185,-459
2,207899,123,2233,-426,-1021,-578,-329,-169,185,-459
2,207905,123,2233,-426,-1021,-578,-329,-169,185,-459
2,207910,123,2233,-426,-1021,-578,-329,-169,185,-459
2,207917,126,2235,-432,-1020,-581,-327,-169,185,-459
2,207923,126,2235,-432,-1020,-581,-327,-169,185,-459
2,207928,126,2235,-432,-1020,-581,-327,-169,185,-459
2,207934,129,2234,-423,-1019,-579,-322,-169,185,-459
2,207939,129,2234,-423,-1019,-579,-322,-169,185,-459
2,207944,129,2234,-423,-1019,-579,-322,-169,185,-459
2,207949,129,2234,-423,-1019,-579,-322,-169,185,-459
2,207955,126,2234,-422,-1021,-577,-326,-167,193,-457
2,207961,126,2234,-422,-1021,-577,-326,-167,193,-457
2,207967,126,2234,-422,-1021,-577,-326,-167,193,-457
2,207972,126,2234,-422,-1021,-577,-326,-167,193,-457
2,207977,129,2237,-426,-1023,-577,-337,-167,193,-457
2,207982,129,2237,-426,-1023,-577,-337,-167,193,-457
2,207987,129,2237,-426,-1023,-577,-337,-167,193,-457
2,207993,125,2235,-428,-1025,-577,-328,-167,193,-457
2,207998,125,2235,-428,-1025,-577,-328,-167,193,-457
2,208005,125,2235,-428,-1025,-577,-328,-167,193,-457
2,208011,125,2235,-428,-1025,-577,-328,-167,193,-457
2,208016,123,2236,-428,-1018,-585,-328,-167,193,-457
2,208021,123,2236,-428,-1018,-585,-328,-167,193,-457
2,208026,123,2236,-428,-1018,-585,-328,-167,193,-457
2,208032,123,2236,-428,-1018,-585,-328,-167,193,-457
2,208037,128,2233,-424,-1022,-573,-322,-167,193,-457
2,208044,128,2233,-424,-1022,-573,-322,-167,193,-457
2,208049,128,2233,-424,-1022,-573,-322,-167,193,-457
2,208054,126,2236,-429,-1021,-575,-320,-167,193,-457
2,208059,126,2236,-429,-1021,-575,-320,-167,193,-457
2,208065,126,2236,-429,-1021,-575,-320,-167,193,-457
2,208070,126,2236,-429,-1021,-575,-320,-167,193,-457
2,208076,125,2236,-420,-1023,-582,-327,-167,193,-457
2,208081,125,2236,-420,-1023,-582,-327,-167,193,-457
2,208087,125,2236,-420,-1023,-582,-327,-167,193,-457
2,208092,125,2236,-420,-1023,-582,-327,-167,193,-457
2,208098,124,2237,-430,-1015,-580,-328,-171,189,-453
2,208104,124,2237,-430,-1015,-580,-328,-171,189,-453
2,208109,124,2237,-430,-1015,-580,-328,-171,189,-453
2,208114,127,2235,-431,-1012,-566,-329,-171,189,-453
2,208120,127,2235,-431,-1012,-566,-329,-171,189,-453
2,208125,127,2235,-431,-1012,-566,-329,-171,189,-453
2,208131,127,2235,-431,-1012,-566,-329,-171,189,-453
2,208136,126,2236,-426,-1015,-574,-336,-171,189,-453
2,208141,126,2236,-426,-1015,-574,-336,-171,189,-453
2,208147,126,2236,-426,-1015,-574,-336,-171,189,-453
2,208153,126,2236,-426,-1015,-574,-336,-171,189,-453
2,208158,125,2238,-428,-1023,-572,-330,-171,189,-453
2,208163,125,2238,-428,-1023,-572,-330,-171,189,-453
2,208169,125,2238,-428,-1023,-572,-330,-171,189,-453
2,208176,127,2236,-429,-1027,-571,-322,-171,189,-453
2,208180,127,2236,-429,-1027,-571,-322,-171,189,-453
2,208186,127,2236,-429,-1027,-571,-322,-171,189,-453
2,208191,127,2236,-429,-1027,-571,-322,-171,189,-453
2,208197,124,2238,-427,-1016,-574,-325,-171,189,-453
2,208202,124,2238,-427,-1016,-574,-325,-171,189,-453
2,208207,124,2238,-427,-1016,-574,-325,-171,189,-453
2,208212,124,2238,-427,-1016,-574,-325,-171,189,-453
2,208219,125,2237,-421,-1020,-576,-322,-170,190,-442
2,208224,125,2237,-421,-1020,-576,-322,-170,190,-442
2,208229,125,2237,-421,-1020,-576,-322,-170,190,-442
2,208234,128,2233,-423,-1026,-579,-325,-170,190,-442
2,208240,128,2233,-423,-1026,-579,-325,-170,190,-442
2,208245,128,2233,-423,-1026,-579,-325,-170,190,-442
2,208250,128,2233,-423,-1026,-579,-325,-170,190,-442
2,208257,129,2235,-425,-1025,-577,-333,-170,190,-442
2,208262,129,2235,-425,-1025,-577,-333,-170,190,-442
2,208268,129,2235,-425,-1025,-577,-333,-170,190,-442
2,208273,129,2235,-425,-1025,-577,-333,-170,190,-442
2,208278,125,2234,-431,-1021,-576,-333,-170,190,-442
2,208283,125,2234,-431,-1021,-576,-333,-170,190,-442
2,208289,125,2234,-431,-1021,-576,-333,-170,190,-442
2,208294,128,2234,-425,-1031,-578,-324,-170,190,-442
2,208301,128,2234,-425,-1031,-578,-324,-170,190,-442
2,208306,128,2234,-425,-1031,-578,-324,-170,190,-442
2,208311,128,2234,-425,-1031,-578,-324,-170,190,-442
2,208316,127,2232,-426,-1025,-581,-318,-170,190,-442
2,208322,127,2232,-426,-1025,-581,-318,-170,190,-442
2,208327,127,2232,-426,-1025,-581,-318,-170,190,-442
2,208333,127,2232,-426,-1025,-581,-318,-170,190,-442
2,208338,126,2233,-428,-1026,-572,-326,-169,191,-453
2,208344,126,2233,-428,-1026,-572,-326,-169,191,-453
2,208350,126,2233,-428,-1026,-572,-326,-169,191,-453
2,208355,123,2238,-427,-1018,-573,-326,-169,191,-453
2,208360,123,2238,-427,-1018,-573,-326,-169,191,-453
2,208366,123,2238,-427,-1018,-573,-326,-169,191,-453
2,208372,123,2238,-427,-1018,-573,-326,-169,191,-453
2,208377,125,2236,-424,-1015,-573,-331,-169,191,-453
2,208382,125,2236,-424,-1015,-573,-331,-169,191,-453
2,208389,125,2236,-424,-1015,-573,-331,-169,191,-453
2,208395,125,2237,-427,-1021,-579,-329,-169,191,-453
2,208400,125,2237,-427,-1021,-579,-329,-169,191,-453
2,208405,125,2237,-427,-1021,-579,-329,-169,191,-453
2,208411,125,2237,-427,-1021,-579,-329,-169,191,-453
2,208416,124,2235,-426,-1024,-574,-330,-169,191,-453
2,208422,124,2235,-426,-1024,-574,-330,-169,191,-453
2,208429,124,2235,-426,-1024,-574,-330,-169,191,-453
2,208434,125,2237,-430,-1020,-577,-332,-169,191,-453
2,208440,125,2237,-430,-1020,-577,-332,-169,191,-453
2,208446,125,2237,-430,-1020,-577,-332,-169,191,-453
2,208451,125,2237,-430,-1020,-577,-332,-169,191,-453
2,208457,125,2237,-430,-1025,-579,-329,-169,191,-453
2,208462,125,2237,-430,-1025,-579,-329,-169,191,-453
2,208468,125,2237,-430,-1025,-579,-329,-169,191,-453
2,208474,125,2237,-430,-1025,-579,-329,-169,191,-453
2,208479,128,2233,-423,-1021,-574,-324,-168,192,-452
2,208485,128,2233,-423,-1021,-574,-324,-168,192,-452
2,208490,128,2233,-423,-1021,-574,-324,-168,192,-452
2,208495,126,2235,-424,-1033,-575,-327,-168,192,-452
2,208500,126,2235,-424,-1033,-575,-327,-168,192,-452
2,208506,126,2235,-424,-1033,-575,-327,-168,192,-452
2,208512,126,2235,-424,-1033,-575,-327,-168,192,-452
2,208517,123,2234,-427,-1027,-577,-329,-168,192,-452
2,208522,123,2234,-427,-1027,-577,-329,-168,192,-452
2,208527,123,2234,-427,-1027,-577,-329,-168,192,-452
2,208533,123,2234,-427,-1027,-577,-329,-168,192,-452
2,208537,126,2238,-423,-1026,-572,-322,-168,192,-452
2,208542,126,2238,-423,-1026,-572,-322,-168,192,-452
2,208548,126,2238,-423,-1026,-572,-322,-168,192,-452
2,208553,126,2238,-423,-1026,-572,-322,-168,192,-452
2,208559,126,2237,-429,-1024,-576,-318,-168,192,-452
2,208564,126,2237,-429,-1024,-576,-318,-168,192,-452
2,208570,126,2237,-429,-1024,-576,-318,-168,192,-452
2,208575,126,2236,-426,-1011,-580,-325,-168,192,-452
2,208581,126,2236,-426,-1011,-580,-325,-168,192,-452
2,208586,126,2236,-426,-1011,-580,-325,-168,192,-452
2,208591,126,2236,-426,-1011,-580,-325,-168,192,-452
2,208598,124,2236,-426,-1024,-572,-330,-167,195,-457
2,208602,124,2236,-426,-1024,-572,-330,-167,195,-457
2,208607,124,2236,-426,-1024,-572,-330,-167,195,-457
2,208612,124,2236,-426,-1024,-572,-330,-167,195,-457
2,208616,124,2236,-426,-1025,-577,-328,-167,195,-457
2,208621,124,2236,-426,-1025,-577,-328,-167,195,-457
2,208625,124,2236,-426,-1025,-577,-328,-167,195,-457
2,208630,124,2236,-426,-1025,-577,-328,-167,195,-457
2,208634,125,2234,-427,-1027,-580,-329,-167,195,-457
2,208640,125,2234,-427,-1027,-580,-329,-167,195,-457
2,208646,125,2234,-427,-1027,-580,-329,-167,195,-457
2,208651,125,2234,-427,-1027,-580,-329,-167,195,-457
2,208656,125,2237,-427,-1020,-568,-325,-167,195,-457
2,208661,125,2237,-427,-1020,-568,-325,-167,195,-457
2,208667,125,2237,-427,-1020,-568,-325,-167,195,-457
2,208672,125,2237,-427,-1020,-568,-325,-167,195,-457
2,208677,127,2238,-426,-1017,-575,-321,-167,195,-457
2,208683,127,2238,-426,-1017,-575,-321,-167,195,-457
2,208689,127,2238,-426,-1017,-575,-321,-167,195,-457
2,208694,127,2234,-425,-1022,-574,-329,-167,195,-457
2,208700,127,2234,-425,-1022,-574,-329,-167,195,-457
2,208705,127,2234,-425,-1022,-574,-329,-167,195,-457
2,208710,127,2234,-425,-1022,-574,-329,-167,195,-457
2,208715,124,2234,-427,-1018,-574,-326,-167,195,-457
2,208721,124,2234,-427,-1018,-574,-326,-167,195,-457
2,208728,124,2234,-427,-1018,-574,-326,-167,195,-457
2,208733,124,2234,-427,-1018,-574,-326,-167,195,-457
2,208738,130,2236,-422,-1027,-571,-331,-168,190,-448
2,208743,130,2236,-422,-1027,-571,-331,-168,190,-448
2,208749,130,2236,-422,-1027,-571,-331,-168,190,-448
2,208754,127,2235,-426,-1017,-570,-331,-168,190,-448
2,208760,127,2235,-426,-1017,-570,-331,-168,190,-448
2,208765,127,2235,-426,-1017,-570,-331,-168,190,-448
2,208772,127,2235,-426,-1017,-570,-331,-168,190,-448
2,208777,125,2234,-428,-1017,-571,-324,-168,190,-448
2,208783,125,2234,-428,-1017,-571,-324,-168,190,-448
2,208789,125,2234,-428,-1017,-571,-324,-168,190,-448
2,208794,128,2235,-423,-1019,-574,-332,-168,190,-448
2,208799,128,2235,-423,-1019,-574,-332,-168,190,-448
2,208805,128,2235,-423,-1019,-574,-332,-168,190,-448
2,208811,128,2235,-423,-1019,-574,-332,-168,190,-448
2,208817,126,2234,-435,-1022,-576,-332,-168,190,-448
2,208822,126,2234,-435,-1022,-576,-332,-168,190,-448
2,208828,126,2234,-435,-1022,-576,-332,-168,190,-448
2,208833,126,2234,-435,-1022,-576,-332,-168,190,-448
2,208838,128,2234,-433,-1020,-578,-324,-168,190,-448
2,208843,128,2234,-433,-1020,-578,-324,-168,190,-448
2,208849,128,2234,-433,-1020,-578,-324,-168,190,-448
2,208855,129,2233,-419,-1017,-582,-326,-165,191,-451
2,208861,129,2233,-419,-1017,-582,-326,-165,191,-451
2,208867,129,2233,-419,-1017,-582,-326,-165,191,-451
2,208872,129,2233,-419,-1017,-582,-326,-165,191,-451
2,208877,127,2234,-420,-1020,-572,-324,-165,191,-451
2,208884,127,2234,-420,-1020,-572,-324,-165,191,-451
2,208889,127,2234,-420,-1020,-572,-324,-165,191,-451
2,208896,124,2235,-421,-1021,-573,-321,-165,191,-451
2,208901,124,2235,-421,-1021,-573,-321,-165,191,-451
2,208906,124,2235,-421,-1021,-573,-321,-165,191,-451
2,208911,124,2235,-421,-1021,-573,-321,-165,191,-451
2,208916,125,2235,-426,-1016,-577,-328,-165,191,-451
2,208921,125,2235,-426,-1016,-577,-328,-165,191,-451
2,208927,125,2235,-426,-1016,-577,-328,-165,191,-451
2,208932,125,2235,-426,-1016,-577,-328,-165,191,-451
2,208939,125,2236,-428,-1021,-572,-331,-165,191,-451
2,208944,125,2236,-428,-1021,-572,-331,-165,191,-451
2,208949,125,2236,-428,-1021,-572,-331,-165,191,-451
2,208955,126,2235,-425,-1025,-582,-324,-165,191,-451
2,208960,126,2235,-425,-1025,-582,-324,-165,191,-451
2,208965,126,2235,-425,-1025,-582,-324,-165,191,-451
2,208971,126,2235,-425,-1025,-582,-324,-165,191,-451
2,208976,126,2235,-423,-1024,-584,-318,-164,194,-452
2,208983,126,2235,-423,-1024,-584,-318,-164,194,-452
2,208989,126,2235,-423,-1024,-584,-318,-164,194,-452
2,208994,126,2235,-423,-1024,-584,-318,-164,194,-452
2,209000,125,2234,-419,-1021,-587,-321,-164,194,-452
2,209005,125,2234,-419,-1021,-587,-321,-164,194,-452
2,209011,125,2234,-419,-1021,-587,-321,-164,194,-452
2,209016,127,2238,-423,-1027,-582,-326,-164,194,-452
2,209022,127,2238,-423,-1027,-582,-326,-164,194,-452
2,209028,127,2238,-423,-1027,-582,-326,-164,194,-452
2,209033,127,2238,-423,-1027,-582,-326,-164,194,-452
2,209038,125,2236,-427,-1019,-579,-324,-164,194,-452
2,209044,125,2236,-427,-1019,-579,-324,-164,194,-452
2,209049,125,2236,-427,-1019,-579,-324,-164,194,-452
2,209055,126,2235,-431,-1022,-584,-315,-164,194,-452
2,209060,126,2235,-431,-1022,-584,-315,-164,194,-452
2,209067,126,2235,-431,-1022,-584,-315,-164,194,-452
2,209072,126,2235,-431,-1022,-584,-315,-164,194,-452
2,209077,124,2236,-431,-1018,-579,-318,-164,194,-452
2,209083,124,2236,-431,-1018,-579,-318,-164,194,-452
2,209088,124,2236,-431,-1018,-579,-318,-164,194,-452
2,209094,124,2236,-431,-1018,-579,-318,-164,194,-452
2,209099,124,2237,-432,-1021,-580,-323,-164,194,-452
2,209104,124,2237,-432,-1021,-580,-323,-164,194,-452
2,209111,124,2237,-432,-1021,-580,-323,-164,194,-452
2,209116,124,2237,-428,-1013,-575,-325,-171,191,-457
2,209121,124,2237,-428,-1013,-575,-325,-171,191,-457
2,209127,124,2237,-428,-1013,-575,-325,-171,191,-457
2,209132,124,2237,-428,-1013,-575,-325,-171,191,-457
2,209138,127,2235,-423,-1019,-577,-329,-171,191,-457
2,209143,127,2235,-423,-1019,-577,-329,-171,191,-457
2,209149,127,2235,-423,-1019,-577,-329,-171,191,-457
2,209155,129,2236,-426,-1021,-576,-327,-171,191,-457
2,209160,129,2236,-426,-1021,-576,-327,-171,191,-457
2,209166,129,2236,-426,-1021,-576,-327,-171,191,-457
2,209171,129,2236,-426,-1021,-576,-327,-171,191,-457
2,209177,124,2233,-422,-1016,-579,-324,-171,191,-457
2,209182,124,2233,-422,-1016,-579,-324,-171,191,-457
2,209187,124,2233,-422,-1016,-579,-324,-171,191,-457
2,209193,124,2233,-422,-1016,-579,-324,-171,191,-457
2,209199,126,2235,-423,-1027,-576,-331,-171,191,-457
2,209204,126,2235,-423,-1027,-576,-331,-171,191,-457
2,209209,126,2235,-423,-1027,-576,-331,-171,191,-457
2,209215,126,2234,-426,-1016,-575,-327,-171,191,-457
2,209220,126,2234,-426,-1016,-575,-327,-171,191,-457
2,209226,126,2234,-426,-1016,-575,-327,-171,191,-457
2,209231,126,2234,-426,-1016,-575,-327,-171,191,-457
2,209238,129,2234,-428,-1017,-580,-322,-169,189,-451
2,209243,129,2234,-428,-1017,-580,-322,-169,189,-451
2,209248,129,2234,-428,-1017,-580,-322,-169,189,-451
2,209254,129,2234,-428,-1017,-580,-322,-169,189,-451
2,209259,124,2237,-425,-1020,-576,-325,-169,189,-451
2,209264,124,2237,-425,-1020,-576,-325,-169,189,-451
2,209269,124,2237,-425,-1020,-576,-325,-169,189,-451
2,209274,124,2237,-425,-1020,-576,-325,-169,189,-451
2,209280,125,2234,-423,-1027,-574,-324,-169,189,-451
2,209286,125,2234,-423,-1027,-574,-324,-169,189,-451
2,209291,125,2234,-423,-1027,-574,-324,-169,189,-451
2,209297,126,2237,-426,-1021,-578,-319,-169,189,-451
2,209302,126,2237,-426,-1021,-578,-319,-169,189,-451
2,209308,126,2237,-426,-1021,-578,-319,-169,189,-451
2,209312,126,2237,-426,-1021,-578,-319,-169,189,-451
2,209317,130,2233,-432,-1015,-576,-327,-169,189,-451
2,209324,130,2233,-432,-1015,-576,-327,-169,189,-451
2,209329,130,2233,-432,-1015,-576,-327,-169,189,-451
2,209334,130,2233,-432,-1015,-576,-327,-169,189,-451
2,209340,126,2237,-425,-1028,-580,-325,-169,189,-451
2,209346,126,2237,-425,-1028,-580,-325,-169,189,-451
2,209351,126,2237,-425,-1028,-580,-325,-169,189,-451
2,209358,126,2232,-425,-1025,-575,-321,-169,189,-451
2,209363,126,2232,-425,-1025,-575,-321,-169,189,-451
2,209370,126,2232,-425,-1025,-575,-321,-169,189,-451
2,209375,126,2235,-424,-1025,-575,-327,-169,189,-451
2,209380,126,2235,-424,-1025,-575,-327,-169,195,-455
2,209385,126,2235,-424,-1025,-575,-327,-169,195,-455
2,209391,126,2235,-424,-1025,-575,-327,-169,195,-455
2,209396,128,2235,-429,-1019,-575,-325,-169,195,-455
2,209401,128,2235,-429,-1019,-575,-325,-169,195,-455
2,209406,128,2235,-429,-1019,-575,-325,-169,195,-455
2,209411,128,2235,-429,-1019,-575,-325,-169,195,-455
2,209417,125,2237,-427,-1021,-578,-320,-169,195,-455
2,209422,125,2237,-427,-1021,-578,-320,-169,195,-455
2,209428,125,2237,-427,-1021,-578,-320,-169,195,-455
2,209433,125,2237,-427,-1021,-578,-320,-169,195,-455
2,209439,126,2234,-429,-1017,-578,-324,-169,195,-455
2,209444,126,2234,-429,-1017,-578,-324,-169,195,-455
2,209451,126,2234,-429,-1017,-578,-324,-169,195,-455
2,209456,128,2237,-428,-1023,-575,-324,-169,195,-455
2,209461,128,2237,-428,-1023,-575,-324,-169,195,-455
2,209466,128,2237,-428,-1023,-575,-324,-169,195,-455
2,209472,128,2237,-428,-1023,-575,-324,-169,195,-455
2,209477,129,2235,-428,-1023,-574,-329,-169,195,-455
2,209483,129,2235,-428,-1023,-574,-329,-169,195,-455
2,209488,129,2235,-428,-1023,-574,-329,-169,195,-455
2,209495,129,2235,-428,-1023,-574,-329,-169,195,-455
2,209500,127,2237,-420,-1024,-582,-325,-164,184,-454
2,209505,127,2237,-420,-1024,-582,-325,-164,184,-454
2,209510,127,2237,-420,-1024,-582,-325,-164,184,-454
2,209516,125,2236,-428,-1023,-576,-318,-164,184,-454
2,209522,125,2236,-428,-1023,-576,-318,-164,184,-454
2,209527,125,2236,-428,-1023,-576,-318,-164,184,-454
2,209532,125,2236,-428,-1023,-576,-318,-164,184,-454
2,209539,126,2235,-417,-1019,-578,-326,-164,184,-454
2,209544,126,2235,-417,-1019,-578,-326,-164,184,-454
2,209549,126,2235,-417,-1019,-578,-326,-164,184,-454
2,209554,126,2235,-417,-1019,-578,-326,-164,184,-454
2,209560,127,2235,-429,-1020,-578,-325,-164,184,-454
2,209565,127,2235,-429,-1020,-578,-325,-164,184,-454
2,209571,127,2235,-429,-1020,-578,-325,-164,184,-454
2,209576,126,2236,-422,-1027,-580,-330,-164,184,-454
2,209583,126,2236,-422,-1027,-580,-330,-164,184,-454
2,209588,126,2236,-422,-1027,-580,-330,-164,184,-454
2,209593,126,2236,-422,-1027,-580,-330,-164,184,-454
2,209598,126,2235,-423,-1025,-577,-324,-164,184,-454
2,209604,126,2235,-423,-1025,-577,-324,-164,184,-454
2,209609,126,2235,-423,-1025,-577,-324,-164,184,-454
2,209615,126,2235,-423,-1025,-577,-324,-164,184,-454
2,209620,124,2236,-426,-1018,-581,-327,-170,188,-460
2,209626,124,2236,-426,-1018,-581,-327,-170,188,-460
2,209632,124,2236,-426,-1018,-581,-327,-170,188,-460
2,209637,126,2238,-421,-1020,-578,-329,-170,188,-460
2,209642,126,2238,-421,-1020,-578,-329,-170,188,-460
2,209647,126,2238,-421,-1020,-578,-329,-170,188,-460
2,209652,126,2238,-421,-1020,-578,-329,-170,188,-460
2,209658,127,2234,-426,-1024,-575,-336,-170,188,-460
2,209664,127,2234,-426,-1024,-575,-336,-170,188,-460
2,209669,127,2234,-426,-1024,-575,-336,-170,188,-460
2,209675,127,2234,-426,-1024,-575,-336,-170,188,-460
2,209680,126,2235,-425,-1020,-588,-334,-170,188,-460
2,209685,126,2235,-425,-1020,-588,-334,-170,188,-460
2,209690,126,2235,-425,-1020,-588,-334,-170,188,-460
2,209695,127,2237,-420,-1017,-576,-325,-170,188,-460
2,209700,127,2237,-420,-1017,-576,-325,-170,188,-460
2,209705,127,2237,-420,-1017,-576,-325,-170,188,-460
2,209712,127,2237,-420,-1017,-576,-325,-170,188,-460
2,209717,126,2238,-423,-1019,-580,-327,-170,188,-460
2,209723,126,2238,-423,-1019,-580,-327,-170,188,-460
2,209728,126,2238,-423,-1019,-580,-327,-170,188,-460
2,209733,126,2238,-423,-1019,-580,-327,-170,188,-460
2,209738,127,2239,-432,-1021,-581,-332,-170,188,-460
2,209744,127,2239,-432,-1021,-581,-332,-170,188,-460
2,209750,127,2239,-432,-1021,-581,-332,-170,188,-460
2,209756,127,2236,-425,-1025,-577,-322,-170,188,-460
2,209761,127,2236,-425,-1025,-577,-322,-166,192,-454
2,209767,127,2236,-425,-1025,-577,-322,-166,192,-454
2,209772,127,2236,-425,-1025,-577,-322,-166,192,-454
2,209777,128,2237,-423,-1023,-572,-320,-166,192,-454
2,209782,128,2237,-423,-1023,-572,-320,-166,192,-454
2,209787,128,2237,-423,-1023,-572,-320,-166,192,-454
2,209793,128,2237,-423,-1023,-572,-320,-166,192,-454
2,209799,125,2235,-428,-1019,-575,-327,-166,192,-454
2,209804,125,2235,-428,-1019,-575,-327,-166,192,-454
2,209809,125,2235,-428,-1019,-575,-327,-166,192,-454
2,209815,125,2235,-428,-1019,-575,-327,-166,192,-454
2,209821,126,2239,-432,-1014,-573,-323,-166,192,-454
2,209826,126,2239,-432,-1014,-573,-323,-166,192,-454
2,209831,126,2239,-432,-1014,-573,-323,-166,192,-454
2,209837,125,2237,-426,-1023,-576,-324,-166,192,-454
2,209843,125,2237,-426,-1023,-576,-324,-166,192,-454
2,209848,125,2237,-426,-1023,-576,-324,-166,192,-454
2,209854,125,2237,-426,-1023,-576,-324,-166,192,-454
2,209860,126,2234,-424,-1024,-576,-325,-166,192,-454
2,209865,126,2234,-424,-1024,-576,-325,-166,192,-454
2,209871,126,2234,-424,-1024,-576,-325,-166,192,-454
2,209876,126,2238,-425,-1018,-577,-329,-176,186,-454
2,209883,126,2238,-425,-1018,-577,-329,-176,186,-454
2,209888,126,2238,-425,-1018,-577,-329,-176,186,-454
2,209893,126,2238,-425,-1018,-577,-329,-176,186,-454
2,209898,126,2236,-422,-1025,-576,-328,-176,186,-454
2,209904,126,2236,-422,-1025,-576,-328,-176,186,-454
2,209909,126,2236,-422,-1025,-576,-328,-176,186,-454
2,209915,126,2236,-422,-1025,-576,-328,-176,186,-454
2,209921,126,2237,-426,-1016,-578,-331,-176,186,-454
2,209927,126,2237,-426,-1016,-578,-331,-176,186,-454
2,209932,126,2237,-426,-1016,-578,-331,-176,186,-454
2,209937,126,2234,-428,-1015,-574,-330,-176,186,-454
2,209942,126,2234,-428,-1015,-574,-330,-176,186,-454
2,209949,126,2234,-428,-1015,-574,-330,-176,186,-454
2,209955,126,2234,-428,-1015,-574,-330,-176,186,-454
2,209960,123,2235,-424,-1020,-572,-328,-176,186,-454
2,209967,123,2235,-424,-1020,-572,-328,-176,186,-454
2,209972,123,2235,-424,-1020,-572,-328,-176,186,-454
2,209977,128,2235,-423,-1025,-577,-325,-176,186,-454
2,209983,128,2235,-423,-1025,-577,-325,-176,186,-454
2,209988,128,2235,-423,-1025,-577,-325,-176,186,-454
2,209993,128,2235,-423,-1025,-577,-325,-176,186,-454
2,209999,128,2236,-429,-1025,-578,-324,-176,186,-454
2,210004,128,2236,-429,-1025,-578,-324,-176,186,-454
2,210010,128,2236,-429,-1025,-578,-324,-176,186,-454
2,210015,128,2236,-429,-1025,-578,-324,-176,186,-454
2,210021,129,2236,-423,-1018,-569,-324,-167,195,-455
2,210026,129,2236,-423,-1018,-569,-324,-167,195,-455
2,210032,129,2236,-423,-1018,-569,-324,-167,195,-455
2,210037,128,2234,-427,-1013,-579,-322,-167,195,-455
2,210042,128,2234,-427,-1013,-579,-322,-167,195,-455
2,210049,128,2234,-427,-1013,-579,-322,-167,195,-455
2,210054,128,2234,-427,-1013,-579,-322,-167,195,-455
2,210060,124,2234,-429,-1022,-580,-325,-167,195,-455
2,210065,124,2234,-429,-1022,-580,-325,-167,195,-455
2,210071,124,2234,-429,-1022,-580,-325,-167,195,-455
2,210076,126,2236,-430,-1026,-582,-324,-167,195,-455
2,210082,126,2236,-430,-1026,-582,-324,-167,195,-455
2,210087,126,2236,-430,-1026,-582,-324,-167,195,-455
2,210093,126,2236,-430,-1026,-582,-324,-167,195,-455
2,210099,127,2235,-428,-1020,-576,-331,-167,195,-455
2,210104,127,2235,-428,-1020,-576,-331,-167,195,-455
2,210109,127,2235,-428,-1020,-576,-331,-167,195,-455
2,210114,127,2235,-428,-1020,-576,-331,-167,195,-455
2,210120,128,2234,-427,-1020,-573,-331,-167,195,-455
2,210124,128,2234,-427,-1020,-573,-331,-167,195,-455
2,210130,128,2234,-427,-1020,-573,-331,-167,195,-455
2,210136,128,2234,-427,-1020,-573,-331,-167,195,-455
2,210142,126,2237,-419,-1019,-576,-327,-159,183,-461
2,210147,126,2237,-419,-1019,-576,-327,-159,183,-461
2,210153,126,2237,-419,-1019,-576,-327,-159,183,-461
2,210158,127,2234,-420,-1019,-577,-329,-159,183,-461
2,210164,127,2234,-420,-1019,-577,-329,-159,183,-461
2,210169,127,2234,-420,-1019,-577,-329,-159,183,-461
2,210174,127,2234,-420,-1019,-577,-329,-159,183,-461
2,210180,127,2232,-425,-1025,-573,-324,-159,183,-461
2,210186,127,2232,-425,-1025,-573,-324,-159,183,-461
2,210191,127,2232,-425,-1025,-573,-324,-159,183,-461
2,210196,127,2232,-425,-1025,-573,-324,-159,183,-461
2,210201,127,2235,-426,-1021,-579,-324,-159,183,-461
2,210207,127,2235,-426,-1021,-579,-324,-159,183,-461
2,210212,127,2235,-426,-1021,-579,-324,-159,183,-461
2,210217,128,2234,-422,-1023,-577,-325,-159,183,-461
2,210224,128,2234,-422,-1023,-577,-325,-159,183,-461
2,210230,128,2234,-422,-1023,-577,-325,-159,183,-461
2,210235,128,2234,-422,-1023,-577,-325,-159,183,-461
2,210240,126,2236,-429,-1022,-575,-322,-159,183,-461
2,210246,126,2236,-429,-1022,-575,-322,-159,183,-461
2,210251,126,2236,-429,-1022,-575,-322,-159,183,-461
2,210257,129,2233,-418,-1022,-574,-333,-170,196,-456
2,210263,129,2233,-418,-1022,-574,-333,-170,196,-456
2,210268,129,2233,-418,-1022,-574,-333,-170,196,-456
2,210273,129,2233,-418,-1022,-574,-333,-170,196,-456
2,210279,127,2235,-427,-1019,-574,-329,-170,196,-456
2,210284,127,2235,-427,-1019,-574,-329,-170,196,-456
2,210290,127,2235,-427,-1019,-574,-329,-170,196,-456
2,210295,127,2235,-427,-1019,-574,-329,-170,196,-456
2,210301,128,2234,-428,-1026,-579,-324,-170,196,-456
2,210307,128,2234,-428,-1026,-579,-324,-170,196,-456
2,210313,128,2234,-428,-1026,-579,-324,-170,196,-456
2,210318,126,2238,-430,-1023,-574,-323,-170,196,-456
2,210324,126,2238,-430,-1023,-574,-323,-170,196,-456
2,210329,126,2238,-430,-1023,-574,-323,-170,196,-456
2,210335,126,2238,-430,-1023,-574,-323,-170,196,-456
2,210340,128,2236,-425,-1027,-568,-324,-170,196,-456
2,210347,128,2236,-425,-1027,-568,-324,-170,196,-456
2,210352,128,2236,-425,-1027,-568,-324,-170,196,-456
2,210358,125,2233,-430,-1024,-584,-328,-170,196,-456
2,210363,125,2233,-430,-1024,-584,-328,-170,196,-456
2,210368,125,2233,-430,-1024,-584,-328,-170,196,-456
2,210374,125,2233,-430,-1024,-584,-328,-170,196,-456
2,210379,130,2235,-427,-1027,-581,-329,-170,196,-456
2,210384,130,2235,-427,-1027,-581,-329,-170,196,-456
2,210390,130,2235,-427,-1027,-581,-329,-170,196,-456
2,210395,130,2235,-427,-1027,-581,-329,-170,196,-456
2,210400,124,2236,-419,-1022,-578,-330,-170,192,-456
2,210406,124,2236,-419,-1022,-578,-330,-170,192,-456
2,210411,124,2236,-419,-1022,-578,-330,-170,192,-456
2,210417,126,2237,-422,-1023,-577,-331,-170,192,-456
2,210423,126,2237,-422,-1023,-577,-331,-170,192,-456
2,210428,126,2237,-422,-1023,-577,-331,-170,192,-456
2,210434,126,2237,-422,-1023,-577,-331,-170,192,-456
2,210439,126,2237,-422,-1023,-577,-331,-170,192,-456
2,210444,126,2237,-422,-1023,-577,-331,-170,192,-456
2,210449,126,2237,-422,-1023,-577,-331,-170,192,-456
2,210454,126,2237,-422,-1023,-577,-331,-170,192,-456
2,210459,127,2234,-427,-1017,-576,-327,-170,192,-456
2,210464,127,2234,-427,-1017,-576,-327,-170,192,-456
2,210469,127,2234,-427,-1017,-576,-327,-170,192,-456
2,210476,127,2234,-427,-1017,-576,-327,-170,192,-456
2,210481,126,2234,-427,-1025,-573,-319,-170,192,-456
2,210486,126,2234,-427,-1025,-573,-319,-170,192,-456
2,210491,126,2234,-427,-1025,-573,-319,-170,192,-456
2,210497,127,2236,-426,-1022,-581,-323,-170,192,-456
2,210502,127,2236,-426,-1022,-581,-323,-170,192,-456
2,210508,127,2236,-426,-1022,-581,-323,-170,192,-456
2,210513,127,2236,-426,-1022,-581,-323,-170,192,-456
2,210519,124,2238,-424,-1021,-580,-319,-171,185,-447
2,210524,124,2238,-424,-1021,-580,-319,-171,185,-447
2,210530,124,2238,-424,-1021,-580,-319,-171,185,-447
2,210535,124,2238,-424,-1021,-580,-319,-171,185,-447
2,210540,126,2237,-424,-1024,-583,-324,-171,185,-447
2,210546,126,2237,-424,-1024,-583,-324,-171,185,-447
2,210550,126,2237,-424,-1024,-583,-324,-171,185,-447
2,210555,126,2237,-424,-1024,-583,-324,-171,185,-447
2,210562,128,2233,-430,-1021,-581,-319,-171,185,-447
2,210567,128,2233,-430,-1021,-581,-319,-171,185,-447
2,210573,128,2233,-430,-1021,-581,-319,-171,185,-447
2,210578,126,2233,-426,-1020,-568,-322,-171,185,-447
2,210584,126,2233,-426,-1020,-568,-322,-171,185,-447
2,210589,126,2233,-426,-1020,-568,-322,-171,185,-447
2,210594,126,2233,-426,-1020,-568,-322,-171,185,-447
2,210600,127,2236,-429,-1025,-572,-329,-171,185,-447
2,210606,127,2236,-429,-1025,-572,-329,-171,185,-447
2,210612,127,2236,-429,-1025,-572,-329,-171,185,-447
2,210617,131,2234,-429,-1026,-577,-319,-171,185,-447
2,210623,131,2234,-429,-1026,-577,-319,-171,185,-447
2,210629,131,2234,-429,-1026,-577,-319,-171,185,-447
2,210634,131,2234,-429,-1026,-577,-319,-171,185,-447
2,210639,127,2232,-427,-1023,-578,-326,-171,185,-447
2,210644,127,2232,-427,-1023,-578,-326,-171,185,-447
2,210651,127,2232,-427,-1023,-578,-326,-171,185,-447
2,210656,127,2232,-427,-1023,-578,-326,-171,185,-447
2,210662,128,2237,-423,-1025,-576,-329,-172,192,-456
2,210667,128,2237,-423,-1025,-576,-329,-172,192,-456
2,210673,128,2237,-423,-1025,-576,-329,-172,192,-456
2,210680,127,2236,-425,-1031,-577,-324,-172,192,-456
2,210686,127,2236,-425,-1031,-577,-324,-172,192,-456
2,210692,127,2236,-425,-1031,-577,-324,-172,192,-456
2,210698,128,2235,-427,-1027,-578,-324,-172,192,-456
2,210703,128,2235,-427,-1027,-578,-324,-172,192,-456
2,210709,128,2235,-427,-1027,-578,-324,-172,192,-456
2,210714,128,2235,-427,-1027,-578,-324,-172,192,-456
2,210719,128,2233,-423,-1025,-573,-323,-172,192,-456
2,210725,128,2233,-423,-1025,-573,-323,-172,192,-456
2,210731,128,2233,-423,-1025,-573,-323,-172,192,-456
2,210737,126,2235,-424,-1019,-568,-322,-172,192,-456
2,210742,126,2235,-424,-1019,-568,-322,-172,192,-456
2,210748,126,2235,-424,-1019,-568,-322,-172,192,-456
2,210753,126,2235,-424,-1019,-568,-322,-172,192,-456
2,210759,127,2234,-424,-1020,-575,-326,-172,192,-456
2,210765,127,2234,-424,-1020,-575,-326,-172,192,-456
2,210770,127,2234,-424,-1020,-575,-326,-172,192,-456
2,210776,127,2234,-424,-1020,-575,-326,-172,192,-456
2,210781,128,2236,-417,-1020,-581,-331,-173,185,-451
2,210787,128,2236,-417,-1020,-581,-331,-173,185,-451
2,210792,128,2236,-417,-1020,-581,-331,-173,185,-451
2,210798,127,2236,-422,-1019,-577,-331,-173,185,-451
2,210804,127,2236,-422,-1019,-577,-331,-173,185,-451
2,210809,127,2236,-422,-1019,-577,-331,-173,185,-451
2,210816,127,2236,-422,-1019,-577,-331,-173,185,-451
2,210821,128,2236,-420,-1027,-581,-326,-173,185,-451
2,210827,128,2236,-420,-1027,-581,-326,-173,185,-451
2,210831,128,2236,-420,-1027,-581,-326,-173,185,-451
2,210837,127,2237,-424,-1021,-585,-323,-173,185,-451
2,210842,127,2237,-424,-1021,-585,-323,-173,185,-451
2,210848,127,2237,-424,-1021,-585,-323,-173,185,-451
2,210853,127,2237,-424,-1021,-585,-323,-173,185,-451
2,210860,124,2235,-428,-1026,-573,-317,-173,185,-451
2,210865,124,2235,-428,-1026,-573,-317,-173,185,-451
2,210871,124,2235,-428,-1026,-573,-317,-173,185,-451
2,210876,124,2235,-428,-1026,-573,-317,-173,185,-451
2,210882,127,2234,-430,-1020,-576,-324,-173,185,-451
2,210888,127,2234,-430,-1020,-576,-324,-173,185,-451
2,210892,127,2234,-430,-1020,-576,-324,-173,185,-451
2,210898,127,2231,-428,-1013,-584,-331,-171,185,-459
2,210905,127,2231,-428,-1013,-584,-331,-171,185,-459
2,210910,127,2231,-428,-1013,-584,-331,-171,185,-459
2,210915,127,2231,-428,-1013,-584,-331,-171,185,-459
2,210920,128,2235,-423,-1017,-585,-327,-171,185,-459
2,210926,128,2235,-423,-1017,-585,-327,-171,185,-459
2,210931,128,2235,-423,-1017,-585,-327,-171,185,-459
2,210937,126,2235,-422,-1024,-583,-325,-171,185,-459
2,210942,126,2235,-422,-1024,-583,-325,-171,185,-459
2,210949,126,2235,-422,-1024,-583,-325,-171,185,-459
2,210954,126,2235,-422,-1024,-583,-325,-171,185,-459
2,210959,126,2235,-427,-1030,-575,-325,-171,185,-459
2,210965,126,2235,-427,-1030,-575,-325,-171,185,-459
2,210970,126,2235,-427,-1030,-575,-325,-171,185,-459
2,210976,126,2235,-427,-1030,-575,-325,-171,185,-459
2,210981,127,2239,-433,-1017,-575,-328,-171,185,-459
2,210987,127,2239,-433,-1017,-575,-328,-171,185,-459
2,210992,127,2239,-433,-1017,-575,-328,-171,185,-459
2,210998,128,2235,-421,-1020,-579,-331,-171,185,-459
2,211003,128,2235,-421,-1020,-579,-331,-171,185,-459
2,211007,128,2235,-421,-1020,-579,-331,-171,185,-459
2,211013,128,2235,-421,-1020,-579,-331,-171,185,-459
2,211018,126,2234,-429,-1017,-582,-328,-171,185,-459
2,211024,126,2234,-429,-1017,-582,-328,-171,185,-459
2,211030,126,2234,-429,-1017,-582,-328,-171,185,-459
2,211035,126,2234,-429,-1017,-582,-328,-171,185,-459
2,211041,127,2233,-421,-1010,-579,-330,-169,197,-451
2,211046,127,2233,-421,-1010,-579,-330,-169,197,-451
2,211051,127,2233,-421,-1010,-579,-330,-169,197,-451
2,211057,127,2233,-421,-1010,-579,-330,-169,197,-451
2,211064,126,2234,-428,-1026,-581,-328,-169,197,-451
2,211069,126,2234,-428,-1026,-581,-328,-169,197,-451
2,211075,126,2234,-428,-1026,-581,-328,-169,197,-451
2,211080,127,2236,-426,-1031,-573,-325,-169,197,-451
2,211085,127,2236,-426,-1031,-573,-325,-169,197,-451
2,211090,127,2236,-426,-1031,-573,-325,-169,197,-451
2,211096,127,2236,-426,-1031,-573,-325,-169,197,-451
2,211101,125,2233,-429,-1026,-582,-331,-169,197,-451
2,211107,125,2233,-429,-1026,-582,-331,-169,197,-451
2,211112,125,2233,-429,-1026,-582,-331,-169,197,-451
2,211119,127,2234,-430,-1023,-577,-334,-169,197,-451
2,211124,127,2234,-430,-1023,-577,-334,-169,197,-451
2,211129,127,2234,-430,-1023,-577,-334,-169,197,-451
2,211134,127,2234,-430,-1023,-577,-334,-169,197,-451
2,211140,126,2233,-425,-1020,-580,-333,-169,197,-451
2,211145,126,2233,-425,-1020,-580,-333,-169,197,-451
2,211151,126,2233,-425,-1020,-580,-333,-169,197,-451
2,211156,126,2233,-425,-1020,-580,-333,-169,197,-451
2,211162,127,2235,-423,-1019,-580,-324,-167,187,-451
2,211168,127,2235,-423,-1019,-580,-324,-167,187,-451
2,211173,127,2235,-423,-1019,-580,-324,-167,187,-451
2,211179,128,2235,-426,-1020,-578,-324,-167,187,-451
2,211184,128,2235,-426,-1020,-578,-324,-167,187,-451
2,211189,128,2235,-426,-1020,-578,-324,-167,187,-451
2,211195,128,2235,-426,-1020,-578,-324,-167,187,-451
2,211201,128,2235,-427,-1018,-579,-319,-167,187,-451
2,211206,128,2235,-427,-1018,-579,-319,-167,187,-451
2,211211,128,2235,-427,-1018,-579,-319,-167,187,-451
2,211217,128,2235,-427,-1018,-579,-319,-167,187,-451
2,211222,130,2236,-426,-1022,-581,-318,-167,187,-451
2,211228,130,2236,-426,-1022,-581,-318,-167,187,-451
2,211234,130,2236,-426,-1022,-581,-318,-167,187,-451
2,211239,126,2232,-425,-1031,-582,-327,-167,187,-451
2,211246,126,2232,-425,-1031,-582,-327,-167,187,-451
2,211251,126,2232,-425,-1031,-582,-327,-167,187,-451
2,211257,126,2232,-425,-1031,-582,-327,-167,187,-451
2,211262,128,2234,-424,-1023,-575,-326,-167,187,-451
2,211267,128,2234,-424,-1023,-575,-326,-167,187,-451
2,211273,128,2234,-424,-1023,-575,-326,-167,187,-451
2,211279,126,2235,-425,-1022,-571,-332,-167,187,-451
2,211284,126,2235,-425,-1022,-571,-332,-167,187,-451
2,211290,126,2235,-425,-1022,-571,-332,-167,187,-451
2,211295,126,2235,-425,-1022,-571,-332,-167,187,-451
2,211301,127,2234,-426,-1027,-577,-326,-162,192,-450
2,211306,127,2234,-426,-1027,-577,-326,-162,192,-450
2,211312,127,2234,-426,-1027,-577,-326,-162,192,-450
2,211317,126,2236,-427,-1025,-576,-328,-162,192,-450
2,211323,126,2236,-427,-1025,-576,-328,-162,192,-450
2,211329,126,2236,-427,-1025,-576,-328,-162,192,-450
2,211334,126,2236,-427,-1025,-576,-328,-162,192,-450
2,211340,124,2236,-429,-1017,-580,-329,-162,192,-450
2,211345,124,2236,-429,-1017,-580,-329,-162,192,-450
2,211350,124,2236,-429,-1017,-580,-329,-162,192,-450
2,211355,124,2236,-429,-1017,-580,-329,-162,192,-450
2,211360,126,2237,-424,-1019,-579,-333,-162,192,-450
2,211365,126,2237,-424,-1019,-579,-333,-162,192,-450
2,211371,126,2237,-424,-1019,-579,-333,-162,192,-450
2,211377,126,2237,-424,-1019,-579,-333,-162,192,-450
2,211382,130,2237,-427,-1031,-584,-325,-162,192,-450
2,211387,130,2237,-427,-1031,-584,-325,-162,192,-450
2,211392,130,2237,-427,-1031,-584,-325,-162,192,-450
2,211398,126,2233,-427,-1032,-585,-333,-162,192,-450
2,211403,126,2233,-427,-1032,-585,-333,-162,192,-450
2,211408,126,2233,-427,-1032,-585,-333,-162,192,-450
2,211415,126,2233,-427,-1032,-585,-333,-162,192,-450
2,211420,128,2237,-422,-1016,-573,-328,-176,198,-458
2,211425,128,2237,-422,-1016,-573,-328,-176,198,-458
2,211430,128,2237,-422,-1016,-573,-328,-176,198,-458
2,211435,128,2237,-422,-1016,-573,-328,-176,198,-458
2,211441,127,2233,-420,-1018,-574,-327,-176,198,-458
2,211446,127,2233,-420,-1018,-574,-327,-176,198,-458
2,211452,127,2233,-420,-1018,-574,-327,-176,198,-458
2,211457,127,2233,-420,-1018,-574,-327,-176,198,-458
2,211463,125,2234,-424,-1025,-583,-321,-176,198,-458
2,211468,125,2234,-424,-1025,-583,-321,-176,198,-458
2,211474,125,2234,-424,-1025,-583,-321,-176,198,-458
2,211479,129,2234,-421,-1026,-581,-323,-176,198,-458
2,211485,129,2234,-421,-1026,-581,-323,-176,198,-458
2,211490,129,2234,-421,-1026,-581,-323,-176,198,-458
2,211495,129,2234,-421,-1026,-581,-323,-176,198,-458
2,211501,126,2234,-428,-1018,-582,-329,-176,198,-458
2,211507,126,2234,-428,-1018,-582,-329,-176,198,-458
2,211512,126,2234,-428,-1018,-582,-329,-176,198,-458
2,211518,126,2236,-432,-1025,-578,-326,-176,198,-458
2,211523,126,2236,-432,-1025,-578,-326,-176,198,-458
2,211529,126,2236,-432,-1025,-578,-326,-176,198,-458
2,211534,126,2236,-432,-1025,-578,-326,-176,198,-458
2,211539,127,2239,-429,-1019,-577,-327,-171,187,-451
2,211546,127,2239,-429,-1019,-577,-327,-171,187,-451
2,211551,127,2239,-429,-1019,-577,-327,-171,187,-451
2,211556,127,2239,-429,-1019,-577,-327,-171,187,-451
2,211562,125,2234,-421,-1029,-580,-329,-171,187,-451
2,211567,125,2234,-421,-1029,-580,-329,-171,187,-451
2,211573,125,2234,-421,-1029,-580,-329,-171,187,-451
2,211578,124,2235,-427,-1020,-577,-325,-171,187,-451
2,211585,124,2235,-427,-1020,-577,-325,-171,187,-451
2,211590,124,2235,-427,-1020,-577,-325,-171,187,-451
2,211595,124,2235,-427,-1020,-577,-325,-171,187,-451
2,211600,126,2234,-423,-1022,-578,-328,-171,187,-451
2,211606,126,2234,-423,-1022,-578,-328,-171,187,-451
2,211611,126,2234,-423,-1022,-578,-328,-171,187,-451
2,211617,126,2234,-423,-1022,-578,-328,-171,187,-451
2,211621,128,2234,-429,-1022,-575,-325,-171,187,-451
2,211628,128,2234,-429,-1022,-575,-325,-171,187,-451
2,211633,128,2234,-429,-1022,-575,-325,-171,187,-451
2,211638,125,2233,-428,-1019,-573,-321,-171,187,-451
2,211644,125,2233,-428,-1019,-573,-321,-171,187,-451
2,211649,125,2233,-428,-1019,-573,-321,-171,187,-451
2,211654,125,2233,-428,-1019,-573,-321,-171,187,-451
2,211660,125,2237,-426,-1021,-576,-323,-171,187,-451
2,211665,125,2237,-426,-1021,-576,-323,-171,187,-451
2,211672,125,2237,-426,-1021,-576,-323,-171,187,-451
2,211677,125,2237,-426,-1021,-576,-323,-171,187,-451
2,211682,128,2237,-420,-1022,-578,-333,-167,183,-455
2,211688,128,2237,-420,-1022,-578,-333,-167,183,-455
2,211694,128,2237,-420,-1022,-578,-333,-167,183,-455
2,211699,127,2234,-426,-1021,-576,-331,-167,183,-455
2,211705,127,2234,-426,-1021,-576,-331,-167,183,-455
2,211710,127,2234,-426,-1021,-576,-331,-167,183,-455
2,211716,127,2234,-426,-1021,-576,-331,-167,183,-455
2,211722,126,2237,-429,-1021,-576,-324,-167,183,-455
2,211727,126,2237,-429,-1021,-576,-324,-167,183,-455
2,211733,126,2237,-429,-1021,-576,-324,-167,183,-455
2,211738,128,2232,-432,-1031,-574,-327,-167,183,-455
2,211743,128,2232,-432,-1031,-574,-327,-167,183,-455
2,211749,128,2232,-432,-1031,-574,-327,-167,183,-455
2,211755,128,2232,-432,-1031,-574,-327,-167,183,-455
2,211761,130,2235,-429,-1021,-584,-330,-167,183,-455
2,211766,130,2235,-429,-1021,-584,-330,-167,183,-455
2,211771,130,2235,-429,-1021,-584,-330,-167,183,-455
2,211777,130,2235,-429,-1021,-584,-330,-167,183,-455
2,211782,128,2236,-431,-1013,-581,-328,-167,183,-455
2,211787,128,2236,-431,-1013,-581,-328,-167,183,-455
2,211793,128,2236,-431,-1013,-581,-328,-167,183,-455
2,211799,128,2236,-425,-1017,-576,-318,-170,188,-450
2,211804,128,2236,-425,-1017,-576,-318,-170,188,-450
2,211810,128,2236,-425,-1017,-576,-318,-170,188,-450
2,211815,128,2236,-425,-1017,-576,-318,-170,188,-450
2,211821,128,2236,-425,-1017,-576,-318,-170,188,-450
2,211826,128,2236,-425,-1017,-576,-318,-170,188,-450
2,211832,128,2236,-425,-1017,-576,-318,-170,188,-450
2,211838,125,2235,-421,-1032,-586,-320,-170,188,-450
2,211844,125,2235,-421,-1032,-586,-320,-170,188,-450
2,211850,125,2235,-421,-1032,-586,-320,-170,188,-450
2,211855,125,2235,-421,-1032,-586,-320,-170,188,-450
2,211860,125,2235,-424,-1019,-591,-321,-170,188,-450
2,211865,125,2235,-424,-1019,-591,-321,-170,188,-450
2,211871,125,2235,-424,-1019,-591,-321,-170,188,-450
2,211877,125,2235,-424,-1019,-591,-321,-170,188,-450
2,211883,126,2238,-429,-1017,-586,-320,-170,188,-450
2,211889,126,2238,-429,-1017,-586,-320,-170,188,-450
2,211894,126,2238,-429,-1017,-586,-320,-170,188,-450
2,211900,123,2235,-428,-1017,-581,-328,-170,188,-450
2,211905,123,2235,-428,-1017,-581,-328,-170,188,-450
2,211911,123,2235,-428,-1017,-581,-328,-170,188,-450
2,211917,123,2235,-428,-1017,-581,-328,-170,188,-450
2,211922,129,2237,-429,-1017,-577,-324,-170,188,-450
2,211929,129,2237,-429,-1017,-577,-324,-170,188,-450
2,211934,129,2237,-429,-1017,-577,-324,-170,188,-450
2,211940,124,2237,-423,-1022,-569,-322,-169,191,-457
2,211945,124,2237,-423,-1022,-569,-322,-169,191,-457
2,211950,124,2237,-423,-1022,-569,-322,-169,191,-457
2,211955,124,2237,-423,-1022,-569,-322,-169,191,-457
2,211960,128,2233,-430,-1012,-579,-320,-169,191,-457
2,211966,128,2233,-430,-1012,-579,-320,-169,191,-457
2,211972,128,2233,-430,-1012,-579,-320,-169,191,-457
2,211978,127,2236,-427,-1017,-573,-322,-169,191,-457
2,211984,127,2236,-427,-1017,-573,-322,-169,191,-457
2,211988,127,2236,-427,-1017,-573,-322,-169,191,-457
2,211994,127,2236,-427,-1017,-573,-322,-169,191,-457
2,212000,126,2235,-427,-1023,-574,-323,-169,191,-457
2,212005,126,2235,-427,-1023,-574,-323,-169,191,-457
2,212011,126,2235,-427,-1023,-574,-323,-169,191,-457
2,212017,126,2235,-427,-1023,-574,-323,-169,191,-457
2,212023,127,2235,-421,-1024,-580,-326,-169,191,-457
2,212028,127,2235,-421,-1024,-580,-326,-169,191,-457
2,212034,127,2235,-421,-1024,-580,-326,-169,191,-457
2,212039,127,2233,-427,-1028,-573,-327,-169,191,-457
2,212045,127,2233,-427,-1028,-573,-327,-169,191,-457
2,212050,127,2233,-427,-1028,-573,-327,-169,191,-457
2,212057,127,2233,-427,-1028,-573,-327,-169,191,-457
2,212063,129,2236,-422,-1025,-578,-320,-174,192,-460
2,212068,129,2236,-422,-1025,-578,-320,-174,192,-460
2,212074,129,2236,-422,-1025,-578,-320,-174,192,-460
2,212079,126,2236,-424,-1022,-576,-326,-174,192,-460
2,212085,126,2236,-424,-1022,-576,-326,-174,192,-460
2,212090,126,2236,-424,-1022,-576,-326,-174,192,-460
2,212097,126,2236,-424,-1022,-576,-326,-174,192,-460
2,212103,127,2237,-420,-1030,-583,-334,-174,192,-460
2,212109,127,2237,-420,-1030,-583,-334,-174,192,-460
