imu,time,ax,ay,az,gx,gy,gz,mx,my,mz
2,247571,-1889,155,-401,-1024,-583,-331,180,386,-452
2,247579,-1889,155,-401,-1024,-583,-331,180,386,-452
2,247587,-1887,155,-402,-1026,-576,-329,180,386,-452
2,247595,-1887,155,-402,-1026,-576,-329,180,386,-452
2,247602,-1887,155,-402,-1026,-576,-329,180,386,-452
2,247609,-1889,155,-407,-1024,-577,-329,180,386,-452
2,247616,-1889,155,-407,-1024,-577,-329,180,386,-452
2,247623,-1889,155,-407,-1024,-577,-329,180,386,-452
2,247629,-1885,153,-399,-1020,-584,-327,180,386,-452
2,247636,-1885,153,-399,-1020,-584,-327,180,386,-452
2,247643,-1885,153,-399,-1020,-584,-327,180,386,-452
2,247649,-1883,158,-397,-1024,-580,-327,180,386,-452
2,247655,-1883,158,-397,-1024,-580,-327,180,386,-452
2,247661,-1883,158,-397,-1024,-580,-327,180,386,-452
2,247667,-1889,155,-405,-1027,-581,-336,180,386,-452
2,247673,-1889,155,-405,-1027,-581,-336,180,386,-452
2,247678,-1889,155,-405,-1027,-581,-336,180,386,-452
2,247685,-1889,155,-405,-1027,-581,-336,180,386,-452
2,247691,-1888,156,-405,-1029,-584,-326,181,379,-447
2,247696,-1888,156,-405,-1029,-584,-326,181,379,-447
2,247702,-1888,156,-405,-1029,-584,-326,181,379,-447
2,247707,-1889,155,-402,-1020,-581,-328,181,379,-447
2,247713,-1889,155,-402,-1020,-581,-328,181,379,-447
2,247718,-1889,155,-402,-1020,-581,-328,181,379,-447
2,247724,-1889,155,-402,-1020,-581,-328,181,379,-447
2,247730,-1888,156,-399,-1026,-578,-324,181,379,-447
2,247735,-1888,156,-399,-1026,-578,-324,181,379,-447
2,247740,-1888,156,-399,-1026,-578,-324,181,379,-447
2,247746,-1890,156,-405,-1026,-579,-323,181,379,-447
2,247751,-1890,156,-405,-1026,-579,-323,181,379,-447
2,247757,-1890,156,-405,-1026,-579,-323,181,379,-447
2,247762,-1890,156,-405,-1026,-579,-323,181,379,-447
2,247768,-1888,154,-401,-1023,-581,-321,181,379,-447
2,247773,-1888,154,-401,-1023,-581,-321,181,379,-447
2,247779,-1888,154,-401,-1023,-581,-321,181,379,-447
2,247784,-1888,154,-401,-1023,-581,-321,181,379,-447
2,247789,-1889,154,-407,-1026,-584,-322,181,379,-447
2,247795,-1889,154,-407,-1026,-584,-322,181,379,-447
2,247800,-1889,154,-407,-1026,-584,-322,181,379,-447
2,247806,-1889,154,-400,-1015,-574,-320,177,401,-447
2,247812,-1889,154,-400,-1015,-574,-320,177,401,-447
2,247817,-1889,154,-400,-1015,-574,-320,177,401,-447
2,247823,-1889,154,-400,-1015,-574,-320,177,401,-447
2,247828,-1887,153,-401,-1020,-572,-325,177,401,-447
2,247834,-1887,153,-401,-1020,-572,-325,177,401,-447
2,247839,-1887,153,-401,-1020,-572,-325,177,401,-447
2,247844,-1887,153,-401,-1020,-572,-325,177,401,-447
2,247851,-1888,154,-401,-1022,-576,-328,177,401,-447
2,247856,-1888,154,-401,-1022,-576,-328,177,401,-447
2,247861,-1888,154,-401,-1022,-576,-328,177,401,-447
2,247866,-1887,155,-406,-1025,-583,-325,177,401,-447
2,247872,-1887,155,-406,-1025,-583,-325,177,401,-447
2,247878,-1887,155,-406,-1025,-583,-325,177,401,-447
2,247882,-1887,155,-406,-1025,-583,-325,177,401,-447
2,247888,-1888,152,-408,-1027,-587,-325,177,401,-447
2,247894,-1888,152,-408,-1027,-587,-325,177,401,-447
2,247900,-1888,152,-408,-1027,-587,-325,177,401,-447
2,247906,-1890,151,-402,-1026,-582,-327,177,401,-447
2,247912,-1890,151,-402,-1026,-582,-327,177,401,-447
2,247917,-1890,151,-402,-1026,-582,-327,177,401,-447
2,247922,-1890,151,-402,-1026,-582,-327,177,401,-447
2,247927,-1888,155,-407,-1025,-578,-330,177,401,-447
2,247932,-1888,155,-407,-1025,-578,-330,177,401,-447
2,247938,-1888,155,-407,-1025,-578,-330,177,401,-447
2,247943,-1888,155,-407,-1025,-578,-330,177,401,-447
2,247948,-1887,152,-405,-1019,-583,-324,179,391,-447
2,247954,-1887,152,-405,-1019,-583,-324,179,391,-447
2,247959,-1887,152,-405,-1019,-583,-324,179,391,-447
2,247965,-1887,152,-405,-1019,-583,-324,179,391,-447
2,247970,-1888,153,-401,-1018,-583,-326,179,391,-447
2,247976,-1888,153,-401,-1018,-583,-326,179,391,-447
2,247982,-1888,153,-401,-1018,-583,-326,179,391,-447
2,247987,-1885,153,-401,-1025,-578,-320,179,391,-447
2,247992,-1885,153,-401,-1025,-578,-320,179,391,-447
2,247998,-1885,153,-401,-1025,-578,-320,179,391,-447
2,248003,-1885,153,-401,-1025,-578,-320,179,391,-447
2,248008,-1889,152,-402,-1019,-580,-328,179,391,-447
2,248013,-1889,152,-402,-1019,-580,-328,179,391,-447
2,248019,-1889,152,-402,-1019,-580,-328,179,391,-447
2,248025,-1889,152,-402,-1019,-580,-328,179,391,-447
2,248030,-1889,154,-401,-1025,-577,-321,179,391,-447
2,248036,-1889,154,-401,-1025,-577,-321,179,391,-447
2,248041,-1889,154,-401,-1025,-577,-321,179,391,-447
2,248047,-1889,155,-405,-1023,-578,-324,179,391,-447
2,248052,-1889,155,-405,-1023,-578,-324,179,391,-447
2,248057,-1889,155,-405,-1023,-578,-324,179,391,-447
2,248064,-1889,155,-405,-1023,-578,-324,179,391,-447
2,248069,-1890,157,-392,-1029,-579,-321,183,391,-449
2,248074,-1890,157,-392,-1029,-579,-321,183,391,-449
2,248080,-1890,157,-392,-1029,-579,-321,183,391,-449
2,248085,-1890,157,-392,-1029,-579,-321,183,391,-449
2,248091,-1890,155,-402,-1025,-582,-324,183,391,-449
2,248096,-1890,155,-402,-1025,-582,-324,183,391,-449
2,248101,-1890,155,-402,-1025,-582,-324,183,391,-449
2,248108,-1889,151,-395,-1024,-581,-321,183,391,-449
2,248113,-1889,151,-395,-1024,-581,-321,183,391,-449
2,248118,-1889,151,-395,-1024,-581,-321,183,391,-449
2,248123,-1889,151,-395,-1024,-581,-321,183,391,-449
2,248129,-1892,151,-406,-1018,-583,-328,183,391,-449
2,248134,-1892,151,-406,-1018,-583,-328,183,391,-449
2,248140,-1892,151,-406,-1018,-583,-328,183,391,-449
2,248145,-1892,151,-406,-1018,-583,-328,183,391,-449
2,248151,-1888,153,-405,-1024,-584,-335,183,391,-449
2,248156,-1888,153,-405,-1024,-584,-335,183,391,-449
2,248161,-1888,153,-405,-1024,-584,-335,183,391,-449
2,248167,-1887,154,-403,-1026,-578,-332,183,391,-449
2,248172,-1887,154,-403,-1026,-578,-332,183,391,-449
2,248178,-1887,154,-403,-1026,-578,-332,183,391,-449
2,248183,-1887,154,-403,-1026,-578,-332,183,391,-449
2,248189,-1892,155,-407,-1025,-580,-315,183,391,-449
2,248196,-1892,155,-407,-1025,-580,-315,183,391,-449
2,248201,-1892,155,-407,-1025,-580,-315,183,391,-449
2,248206,-1889,154,-400,-1024,-579,-318,181,389,-441
2,248211,-1889,154,-400,-1024,-579,-318,181,389,-441
2,248217,-1889,154,-400,-1024,-579,-318,181,389,-441
2,248222,-1889,154,-400,-1024,-579,-318,181,389,-441
2,248227,-1887,153,-403,-1029,-576,-321,181,389,-441
2,248233,-1887,153,-403,-1029,-576,-321,181,389,-441
2,248240,-1887,153,-403,-1029,-576,-321,181,389,-441
2,248245,-1887,153,-403,-1029,-576,-321,181,389,-441
2,248250,-1888,152,-395,-1031,-577,-327,181,389,-441
2,248255,-1888,152,-395,-1031,-577,-327,181,389,-441
2,248260,-1888,152,-395,-1031,-577,-327,181,389,-441
2,248266,-1888,152,-395,-1031,-577,-327,181,389,-441
2,248271,-1888,154,-399,-1021,-580,-323,181,389,-441
2,248276,-1888,154,-399,-1021,-580,-323,181,389,-441
2,248282,-1888,154,-399,-1021,-580,-323,181,389,-441
2,248288,-1885,151,-399,-1027,-580,-325,181,389,-441
2,248294,-1885,151,-399,-1027,-580,-325,181,389,-441
2,248299,-1885,151,-399,-1027,-580,-325,181,389,-441
2,248304,-1885,151,-399,-1027,-580,-325,181,389,-441
2,248310,-1887,154,-404,-1021,-585,-322,181,389,-441
2,248315,-1887,154,-404,-1021,-585,-322,181,389,-441
2,248321,-1887,154,-404,-1021,-585,-322,181,389,-441
2,248327,-1888,156,-393,-1016,-580,-320,187,393,-447
2,248332,-1888,156,-393,-1016,-580,-320,187,393,-447
2,248337,-1888,156,-393,-1016,-580,-320,187,393,-447
2,248343,-1888,156,-393,-1016,-580,-320,187,393,-447
2,248348,-1887,158,-401,-1019,-579,-328,187,393,-447
2,248353,-1887,158,-401,-1019,-579,-328,187,393,-447
2,248359,-1887,158,-401,-1019,-579,-328,187,393,-447
2,248365,-1887,158,-401,-1019,-579,-328,187,393,-447
2,248371,-1891,156,-402,-1018,-574,-326,187,393,-447
2,248376,-1891,156,-402,-1018,-574,-326,187,393,-447
2,248382,-1891,156,-402,-1018,-574,-326,187,393,-447
2,248387,-1887,152,-403,-1020,-569,-320,187,393,-447
2,248393,-1887,152,-403,-1020,-569,-320,187,393,-447
2,248398,-1887,152,-403,-1020,-569,-320,187,393,-447
2,248403,-1887,152,-403,-1020,-569,-320,187,393,-447
2,248410,-1887,158,-407,-1025,-580,-326,187,393,-447
2,248415,-1887,158,-407,-1025,-580,-326,187,393,-447
2,248420,-1887,158,-407,-1025,-580,-326,187,393,-447
2,248426,-1887,158,-407,-1025,-580,-326,187,393,-447
2,248431,-1887,153,-409,-1025,-576,-327,187,393,-447
2,248437,-1887,153,-409,-1025,-576,-327,187,393,-447
2,248442,-1887,153,-409,-1025,-576,-327,187,393,-447
2,248448,-1888,155,-403,-1025,-585,-331,181,385,-447
2,248453,-1888,155,-403,-1025,-585,-331,181,385,-447
2,248458,-1888,155,-403,-1025,-585,-331,181,385,-447
2,248464,-1888,155,-403,-1025,-585,-331,181,385,-447
2,248469,-1891,154,-403,-1023,-579,-331,181,385,-447
2,248474,-1891,154,-403,-1023,-579,-331,181,385,-447
2,248479,-1891,154,-403,-1023,-579,-331,181,385,-447
2,248485,-1891,154,-403,-1023,-579,-331,181,385,-447
2,248493,-1888,154,-403,-1016,-576,-332,181,385,-447
2,248498,-1888,154,-403,-1016,-576,-332,181,385,-447
2,248503,-1888,154,-403,-1016,-576,-332,181,385,-447
2,248509,-1890,155,-402,-1023,-576,-328,181,385,-447
2,248514,-1890,155,-402,-1023,-576,-328,181,385,-447
2,248519,-1890,155,-402,-1023,-576,-328,181,385,-447
2,248525,-1890,155,-402,-1023,-576,-328,181,385,-447
2,248530,-1890,157,-403,-1018,-579,-317,181,385,-447
2,248536,-1890,157,-403,-1018,-579,-317,181,385,-447
2,248542,-1890,157,-403,-1018,-579,-317,181,385,-447
2,248547,-1888,153,-402,-1030,-577,-319,181,385,-447
2,248553,-1888,153,-402,-1030,-577,-319,181,385,-447
2,248558,-1888,153,-402,-1030,-577,-319,181,385,-447
2,248562,-1888,153,-402,-1030,-577,-319,181,385,-447
2,248568,-1889,155,-402,-1033,-575,-323,181,385,-447
2,248573,-1889,155,-402,-1033,-575,-323,181,385,-447
2,248580,-1889,155,-402,-1033,-575,-323,181,385,-447
2,248585,-1889,155,-402,-1033,-575,-323,181,385,-447
2,248591,-1888,156,-399,-1016,-580,-328,192,382,-444
2,248596,-1888,156,-399,-1016,-580,-328,192,382,-444
2,248602,-1888,156,-399,-1016,-580,-328,192,382,-444
2,248606,-1888,159,-399,-1028,-586,-328,192,382,-444
2,248612,-1888,159,-399,-1028,-586,-328,192,382,-444
2,248617,-1888,159,-399,-1028,-586,-328,192,382,-444
2,248623,-1888,159,-399,-1028,-586,-328,192,382,-444
2,248629,-1886,157,-406,-1031,-581,-327,192,382,-444
2,248634,-1886,157,-406,-1031,-581,-327,192,382,-444
2,248640,-1886,157,-406,-1031,-581,-327,192,382,-444
2,248646,-1886,157,-406,-1031,-581,-327,192,382,-444
2,248650,-1888,156,-400,-1030,-577,-330,192,382,-444
2,248655,-1888,156,-400,-1030,-577,-330,192,382,-444
2,248662,-1888,156,-400,-1030,-577,-330,192,382,-444
2,248667,-1890,154,-406,-1031,-580,-322,192,382,-444
2,248672,-1890,154,-406,-1031,-580,-322,192,382,-444
2,248677,-1890,154,-406,-1031,-580,-322,192,382,-444
2,248682,-1890,154,-406,-1031,-580,-322,192,382,-444
2,248687,-1887,156,-397,-1035,-583,-324,192,382,-444
2,248693,-1887,156,-397,-1035,-583,-324,192,382,-444
2,248698,-1887,156,-397,-1035,-583,-324,192,382,-444
2,248704,-1887,156,-397,-1035,-583,-324,192,382,-444
2,248710,-1888,155,-401,-1026,-578,-322,177,383,-441
2,248715,-1888,155,-401,-1026,-578,-322,177,383,-441
2,248721,-1888,155,-401,-1026,-578,-322,177,383,-441
2,248726,-1888,155,-401,-1026,-578,-322,177,383,-441
2,248731,-1887,154,-397,-1018,-579,-329,177,383,-441
2,248737,-1887,154,-397,-1018,-579,-329,177,383,-441
2,248742,-1887,154,-397,-1018,-579,-329,177,383,-441
2,248749,-1889,154,-400,-1019,-575,-322,177,383,-441
2,248754,-1889,154,-400,-1019,-575,-322,177,383,-441
2,248759,-1889,154,-400,-1019,-575,-322,177,383,-441
2,248765,-1889,154,-400,-1019,-575,-322,177,383,-441
2,248770,-1886,155,-400,-1021,-581,-323,177,383,-441
2,248775,-1886,155,-400,-1021,-581,-323,177,383,-441
2,248781,-1886,155,-400,-1021,-581,-323,177,383,-441
2,248786,-1886,155,-400,-1021,-581,-323,177,383,-441
2,248793,-1889,152,-400,-1029,-586,-324,177,383,-441
2,248798,-1889,152,-400,-1029,-586,-324,177,383,-441
2,248804,-1889,152,-400,-1029,-586,-324,177,383,-441
2,248809,-1891,156,-404,-1026,-579,-319,177,383,-441
2,248815,-1891,156,-404,-1026,-579,-319,177,383,-441
2,248820,-1891,156,-404,-1026,-579,-319,177,383,-441
2,248825,-1891,156,-404,-1026,-579,-319,177,383,-441
2,248832,-1884,155,-406,-1028,-584,-321,177,383,-441
2,248837,-1884,155,-406,-1028,-584,-321,177,383,-441
2,248842,-1884,155,-406,-1028,-584,-321,177,383,-441
2,248848,-1887,155,-400,-1027,-574,-329,174,390,-438
2,248853,-1887,155,-400,-1027,-574,-329,174,390,-438
2,248858,-1887,155,-400,-1027,-574,-329,174,390,-438
2,248864,-1887,155,-400,-1027,-574,-329,174,390,-438
2,248869,-1888,156,-398,-1029,-577,-334,174,390,-438
2,248875,-1888,156,-398,-1029,-577,-334,174,390,-438
2,248881,-1888,156,-398,-1029,-577,-334,174,390,-438
2,248886,-1888,156,-398,-1029,-577,-334,174,390,-438
2,248892,-1888,151,-401,-1024,-575,-323,174,390,-438
2,248898,-1888,151,-401,-1024,-575,-323,174,390,-438
2,248903,-1888,151,-401,-1024,-575,-323,174,390,-438
2,248908,-1886,151,-405,-1028,-577,-325,174,390,-438
2,248914,-1886,151,-405,-1028,-577,-325,174,390,-438
2,248920,-1886,151,-405,-1028,-577,-325,174,390,-438
2,248925,-1886,151,-405,-1028,-577,-325,174,390,-438
2,248930,-1888,157,-408,-1022,-572,-327,174,390,-438
2,248936,-1888,157,-408,-1022,-572,-327,174,390,-438
2,248942,-1888,157,-408,-1022,-572,-327,174,390,-438
2,248947,-1889,152,-400,-1027,-581,-326,174,390,-438
2,248952,-1889,152,-400,-1027,-581,-326,174,390,-438
2,248957,-1889,152,-400,-1027,-581,-326,174,390,-438
2,248964,-1889,152,-400,-1027,-581,-326,174,390,-438
2,248969,-1887,155,-399,-1021,-579,-326,177,385,-447
2,248974,-1887,155,-399,-1021,-579,-326,177,385,-447
2,248980,-1887,155,-399,-1021,-579,-326,177,385,-447
2,248986,-1887,155,-399,-1021,-579,-326,177,385,-447
2,248990,-1891,154,-401,-1020,-572,-335,177,385,-447
2,248996,-1891,154,-401,-1020,-572,-335,177,385,-447
2,249003,-1891,154,-401,-1020,-572,-335,177,385,-447
2,249009,-1886,155,-405,-1018,-577,-326,177,385,-447
2,249014,-1886,155,-405,-1018,-577,-326,177,385,-447
2,249020,-1886,155,-405,-1018,-577,-326,177,385,-447
2,249025,-1886,155,-405,-1018,-577,-326,177,385,-447
2,249030,-1887,156,-406,-1020,-582,-330,177,385,-447
2,249036,-1887,156,-406,-1020,-582,-330,177,385,-447
2,249041,-1887,156,-406,-1020,-582,-330,177,385,-447
2,249048,-1889,155,-403,-1028,-579,-323,177,385,-447
2,249053,-1889,155,-403,-1028,-579,-323,177,385,-447
2,249058,-1889,155,-403,-1028,-579,-323,177,385,-447
2,249063,-1889,155,-403,-1028,-579,-323,177,385,-447
2,249069,-1885,153,-401,-1030,-578,-325,177,385,-447
2,249074,-1885,153,-401,-1030,-578,-325,177,385,-447
2,249080,-1885,153,-401,-1030,-578,-325,177,385,-447
2,249085,-1885,153,-401,-1030,-578,-325,177,385,-447
2,249092,-1888,155,-400,-1025,-582,-325,182,390,-450
2,249098,-1888,155,-400,-1025,-582,-325,182,390,-450
2,249103,-1888,155,-400,-1025,-582,-325,182,390,-450
2,249108,-1886,154,-396,-1030,-583,-323,182,390,-450
2,249114,-1886,154,-396,-1030,-583,-323,182,390,-450
2,249119,-1886,154,-396,-1030,-583,-323,182,390,-450
2,249124,-1886,154,-396,-1030,-583,-323,182,390,-450
2,249131,-1889,153,-400,-1031,-580,-328,182,390,-450
2,249136,-1889,153,-400,-1031,-580,-328,182,390,-450
2,249141,-1889,153,-400,-1031,-580,-328,182,390,-450
2,249147,-1889,153,-400,-1031,-580,-328,182,390,-450
2,249153,-1888,154,-405,-1025,-573,-317,182,390,-450
2,249158,-1888,154,-405,-1025,-573,-317,182,390,-450
2,249164,-1888,154,-405,-1025,-573,-317,182,390,-450
2,249169,-1889,154,-401,-1028,-572,-320,182,390,-450
2,249175,-1889,154,-401,-1028,-572,-320,182,390,-450
2,249180,-1889,154,-401,-1028,-572,-320,182,390,-450
2,249186,-1889,154,-401,-1028,-572,-320,182,390,-450
2,249191,-1887,156,-403,-1042,-577,-321,182,390,-450
2,249196,-1887,156,-403,-1042,-577,-321,182,390,-450
2,249201,-1887,156,-403,-1042,-577,-321,182,390,-450
2,249206,-1887,156,-403,-1042,-577,-321,182,390,-450
2,249212,-1888,154,-405,-1029,-580,-331,182,390,-450
2,249218,-1888,154,-405,-1029,-580,-331,182,390,-450
2,249224,-1888,154,-405,-1029,-580,-331,182,390,-450
2,249229,-1887,153,-397,-1020,-577,-325,191,377,-451
2,249234,-1887,153,-397,-1020,-577,-325,191,377,-451
2,249240,-1887,153,-397,-1020,-577,-325,191,377,-451
2,249245,-1887,153,-397,-1020,-577,-325,191,377,-451
2,249251,-1886,155,-403,-1023,-580,-327,191,377,-451
2,249256,-1886,155,-403,-1023,-580,-327,191,377,-451
2,249263,-1886,155,-403,-1023,-580,-327,191,377,-451
2,249269,-1886,155,-403,-1023,-580,-327,191,377,-451
2,249275,-1886,155,-403,-1023,-580,-327,191,377,-451
2,249281,-1886,155,-403,-1023,-580,-327,191,377,-451
2,249286,-1886,155,-403,-1023,-580,-327,191,377,-451
2,249291,-1887,154,-404,-1023,-582,-323,191,377,-451
2,249296,-1887,154,-404,-1023,-582,-323,191,377,-451
2,249303,-1887,154,-404,-1023,-582,-323,191,377,-451
2,249308,-1890,153,-402,-1018,-580,-325,191,377,-451
2,249313,-1890,153,-402,-1018,-580,-325,191,377,-451
2,249318,-1890,153,-402,-1018,-580,-325,191,377,-451
2,249324,-1890,153,-402,-1018,-580,-325,191,377,-451
2,249329,-1888,153,-407,-1025,-583,-320,191,377,-451
2,249334,-1888,153,-407,-1025,-583,-320,191,377,-451
2,249339,-1888,153,-407,-1025,-583,-320,191,377,-451
2,249346,-1888,153,-407,-1025,-583,-320,191,377,-451
2,249351,-1889,155,-392,-1025,-574,-324,175,387,-447
2,249357,-1889,155,-392,-1025,-574,-324,175,387,-447
2,249362,-1889,155,-392,-1025,-574,-324,175,387,-447
2,249368,-1887,154,-400,-1024,-572,-325,175,387,-447
2,249373,-1887,154,-400,-1024,-572,-325,175,387,-447
2,249378,-1887,154,-400,-1024,-572,-325,175,387,-447
2,249383,-1887,154,-400,-1024,-572,-325,175,387,-447
2,249390,-1884,153,-402,-1029,-573,-325,175,387,-447
2,249395,-1884,153,-402,-1029,-573,-325,175,387,-447
2,249400,-1884,153,-402,-1029,-573,-325,175,387,-447
2,249406,-1884,153,-402,-1029,-573,-325,175,387,-447
2,249411,-1885,155,-403,-1023,-569,-325,175,387,-447
2,249416,-1885,155,-403,-1023,-569,-325,175,387,-447
2,249421,-1885,155,-403,-1023,-569,-325,175,387,-447
2,249427,-1885,155,-403,-1023,-569,-325,175,387,-447
2,249433,-1887,157,-401,-1027,-581,-324,175,387,-447
2,249438,-1887,157,-401,-1027,-581,-324,175,387,-447
2,249443,-1887,157,-401,-1027,-581,-324,175,387,-447
2,249449,-1887,156,-401,-1017,-578,-328,175,387,-447
2,249454,-1887,156,-401,-1017,-578,-328,175,387,-447
2,249460,-1887,156,-401,-1017,-578,-328,175,387,-447
2,249465,-1887,156,-401,-1017,-578,-328,175,387,-447
2,249470,-1888,152,-406,-1026,-582,-326,175,387,-447
2,249476,-1888,152,-406,-1026,-582,-326,175,387,-447
2,249482,-1888,152,-406,-1026,-582,-326,175,387,-447
2,249487,-1888,152,-406,-1026,-582,-326,175,387,-447
2,249492,-1884,154,-402,-1028,-576,-326,192,396,-450
2,249498,-1884,154,-402,-1028,-576,-326,192,396,-450
2,249503,-1884,154,-402,-1028,-576,-326,192,396,-450
2,249509,-1887,153,-406,-1025,-581,-332,192,396,-450
2,249515,-1887,153,-406,-1025,-581,-332,192,396,-450
2,249520,-1887,153,-406,-1025,-581,-332,192,396,-450
2,249526,-1887,153,-406,-1025,-581,-332,192,396,-450
2,249531,-1887,156,-405,-1024,-577,-330,192,396,-450
2,249537,-1887,156,-405,-1024,-577,-330,192,396,-450
2,249542,-1887,156,-405,-1024,-577,-330,192,396,-450
2,249547,-1887,156,-405,-1024,-577,-330,192,396,-450
2,249552,-1888,157,-403,-1026,-581,-328,192,396,-450
2,249561,-1888,157,-403,-1026,-581,-328,192,396,-450
2,249566,-1888,157,-403,-1026,-581,-328,192,396,-450
2,249572,-1887,154,-404,-1025,-578,-326,192,396,-450
2,249577,-1887,154,-404,-1025,-578,-326,192,396,-450
2,249582,-1887,154,-404,-1025,-578,-326,192,396,-450
2,249587,-1887,154,-404,-1025,-578,-326,192,396,-450
2,249593,-1888,154,-406,-1021,-580,-331,192,396,-450
2,249598,-1888,154,-406,-1021,-580,-331,192,396,-450
2,249605,-1888,154,-406,-1021,-580,-331,192,396,-450
2,249610,-1886,155,-400,-1017,-580,-328,181,387,-447
2,249615,-1886,155,-400,-1017,-580,-328,181,387,-447
2,249621,-1886,155,-400,-1017,-580,-328,181,387,-447
2,249627,-1886,155,-400,-1017,-580,-328,181,387,-447
2,249632,-1885,155,-400,-1019,-574,-322,181,387,-447
2,249637,-1885,155,-400,-1019,-574,-322,181,387,-447
2,249643,-1885,155,-400,-1019,-574,-322,181,387,-447
2,249649,-1886,154,-399,-1025,-581,-320,181,387,-447
2,249654,-1886,154,-399,-1025,-581,-320,181,387,-447
2,249659,-1886,154,-399,-1025,-581,-320,181,387,-447
2,249665,-1886,154,-399,-1025,-581,-320,181,387,-447
2,249671,-1886,155,-401,-1022,-579,-321,181,387,-447
2,249676,-1886,155,-401,-1022,-579,-321,181,387,-447
2,249681,-1886,155,-401,-1022,-579,-321,181,387,-447
2,249687,-1886,155,-401,-1022,-579,-321,181,387,-447
2,249693,-1887,152,-403,-1029,-581,-327,181,387,-447
2,249698,-1887,152,-403,-1029,-581,-327,181,387,-447
2,249703,-1887,152,-403,-1029,-581,-327,181,387,-447
2,249709,-1888,154,-401,-1027,-581,-317,181,387,-447
2,249714,-1888,154,-401,-1027,-581,-317,181,387,-447
2,249720,-1888,154,-401,-1027,-581,-317,181,387,-447
2,249725,-1888,154,-401,-1027,-581,-317,181,387,-447
2,249731,-1886,156,-407,-1029,-577,-321,181,391,-447
2,249737,-1886,156,-407,-1029,-577,-321,181,391,-447
2,249742,-1886,156,-407,-1029,-577,-321,181,391,-447
2,249748,-1886,156,-407,-1029,-577,-321,181,391,-447
2,249754,-1887,157,-398,-1033,-578,-326,181,391,-447
2,249759,-1887,157,-398,-1033,-578,-326,181,391,-447
2,249764,-1887,157,-398,-1033,-578,-326,181,391,-447
2,249769,-1889,156,-405,-1027,-578,-324,181,391,-447
2,249775,-1889,156,-405,-1027,-578,-324,181,391,-447
2,249780,-1889,156,-405,-1027,-578,-324,181,391,-447
2,249786,-1889,156,-405,-1027,-578,-324,181,391,-447
2,249791,-1890,153,-403,-1031,-584,-317,181,391,-447
2,249797,-1890,153,-403,-1031,-584,-317,181,391,-447
2,249802,-1890,153,-403,-1031,-584,-317,181,391,-447
2,249807,-1890,153,-403,-1031,-584,-317,181,391,-447
2,249814,-1889,154,-397,-1029,-590,-319,181,391,-447
2,249819,-1889,154,-397,-1029,-590,-319,181,391,-447
2,249824,-1889,154,-397,-1029,-590,-319,181,391,-447
2,249830,-1890,151,-401,-1021,-584,-323,181,391,-447
2,249835,-1890,151,-401,-1021,-584,-323,181,391,-447
2,249840,-1890,151,-401,-1021,-584,-323,181,391,-447
2,249846,-1890,151,-401,-1021,-584,-323,181,391,-447
2,249851,-1892,152,-406,-1031,-578,-327,181,391,-447
2,249858,-1892,152,-406,-1031,-578,-327,181,391,-447
2,249863,-1892,152,-406,-1031,-578,-327,181,391,-447
2,249868,-1892,152,-406,-1031,-578,-327,181,391,-447
2,249874,-1890,151,-400,-1027,-580,-325,185,389,-443
2,249879,-1890,151,-400,-1027,-580,-325,185,389,-443
2,249884,-1890,151,-400,-1027,-580,-325,185,389,-443
2,249890,-1886,152,-402,-1019,-566,-321,185,389,-443
2,249895,-1886,152,-402,-1019,-566,-321,185,389,-443
2,249902,-1886,152,-402,-1019,-566,-321,185,389,-443
2,249907,-1886,152,-402,-1019,-566,-321,185,389,-443
2,249912,-1888,153,-402,-1026,-571,-326,185,389,-443
2,249917,-1888,153,-402,-1026,-571,-326,185,389,-443
2,249923,-1888,153,-402,-1026,-571,-326,185,389,-443
2,249928,-1885,152,-400,-1020,-579,-320,185,389,-443
2,249934,-1885,152,-400,-1020,-579,-320,185,389,-443
2,249939,-1885,152,-400,-1020,-579,-320,185,389,-443
2,249946,-1885,152,-400,-1020,-579,-320,185,389,-443
2,249950,-1889,155,-404,-1026,-574,-321,185,389,-443
2,249956,-1889,155,-404,-1026,-574,-321,185,389,-443
2,249961,-1889,155,-404,-1026,-574,-321,185,389,-443
2,249966,-1889,155,-404,-1026,-574,-321,185,389,-443
2,249972,-1891,155,-399,-1024,-573,-328,185,389,-443
2,249977,-1891,155,-399,-1024,-573,-328,185,389,-443
2,249982,-1891,155,-399,-1024,-573,-328,185,389,-443
2,249988,-1891,155,-399,-1024,-573,-328,185,389,-443
2,249994,-1885,152,-400,-1031,-582,-326,181,385,-443
2,249998,-1885,152,-400,-1031,-582,-326,181,385,-443
2,250004,-1885,152,-400,-1031,-582,-326,181,385,-443
2,250009,-1891,154,-397,-1028,-578,-323,181,385,-443
2,250015,-1891,154,-397,-1028,-578,-323,181,385,-443
2,250020,-1891,154,-397,-1028,-578,-323,181,385,-443
2,250025,-1891,154,-397,-1028,-578,-323,181,385,-443
2,250031,-1888,154,-398,-1028,-575,-338,181,385,-443
2,250037,-1888,154,-398,-1028,-575,-338,181,385,-443
2,250042,-1888,154,-398,-1028,-575,-338,181,385,-443
2,250047,-1888,154,-398,-1028,-575,-338,181,385,-443
2,250052,-1887,156,-399,-1025,-580,-330,181,385,-443
2,250058,-1887,156,-399,-1025,-580,-330,181,385,-443
2,250063,-1887,156,-399,-1025,-580,-330,181,385,-443
2,250068,-1888,154,-400,-1019,-583,-327,181,385,-443
2,250075,-1888,154,-400,-1019,-583,-327,181,385,-443
2,250080,-1888,154,-400,-1019,-583,-327,181,385,-443
2,250085,-1888,154,-400,-1019,-583,-327,181,385,-443
2,250090,-1887,156,-401,-1027,-574,-328,181,385,-443
2,250096,-1887,156,-401,-1027,-574,-328,181,385,-443
2,250101,-1887,156,-401,-1027,-574,-328,181,385,-443
2,250106,-1887,156,-401,-1027,-574,-328,181,385,-443
2,250113,-1886,156,-402,-1023,-584,-319,181,385,-443
2,250118,-1886,156,-402,-1023,-584,-319,181,385,-443
2,250123,-1886,156,-402,-1023,-584,-319,181,385,-443
2,250129,-1886,153,-400,-1021,-586,-325,185,385,-453
2,250134,-1886,153,-400,-1021,-586,-325,185,385,-453
2,250140,-1886,153,-400,-1021,-586,-325,185,385,-453
2,250145,-1886,153,-400,-1021,-586,-325,185,385,-453
2,250150,-1888,155,-399,-1017,-584,-323,185,385,-453
2,250157,-1888,155,-399,-1017,-584,-323,185,385,-453
2,250162,-1888,155,-399,-1017,-584,-323,185,385,-453
2,250167,-1888,155,-399,-1017,-584,-323,185,385,-453
2,250173,-1888,153,-401,-1024,-581,-328,185,385,-453
2,250179,-1888,153,-401,-1024,-581,-328,185,385,-453
2,250184,-1888,153,-401,-1024,-581,-328,185,385,-453
2,250189,-1890,154,-405,-1020,-586,-328,185,385,-453
2,250194,-1890,154,-405,-1020,-586,-328,185,385,-453
2,250200,-1890,154,-405,-1020,-586,-328,185,385,-453
2,250205,-1890,154,-405,-1020,-586,-328,185,385,-453
2,250211,-1891,155,-402,-1028,-586,-325,185,385,-453
2,250216,-1891,155,-402,-1028,-586,-325,185,385,-453
2,250221,-1891,155,-402,-1028,-586,-325,185,385,-453
2,250226,-1891,155,-402,-1028,-586,-325,185,385,-453
2,250232,-1891,152,-402,-1016,-582,-326,185,385,-453
2,250237,-1891,152,-402,-1016,-582,-326,185,385,-453
2,250243,-1891,152,-402,-1016,-582,-326,185,385,-453
2,250249,-1891,152,-402,-1016,-582,-326,185,385,-453
2,250254,-1887,155,-398,-1019,-589,-322,186,388,-446
2,250259,-1887,155,-398,-1019,-589,-322,186,388,-446
2,250264,-1887,155,-398,-1019,-589,-322,186,388,-446
2,250270,-1888,153,-398,-1027,-583,-331,186,388,-446
2,250275,-1888,153,-398,-1027,-583,-331,186,388,-446
2,250280,-1888,153,-398,-1027,-583,-331,186,388,-446
2,250287,-1888,153,-398,-1027,-583,-331,186,388,-446
2,250292,-1892,153,-399,-1023,-578,-327,186,388,-446
2,250298,-1892,153,-399,-1023,-578,-327,186,388,-446
2,250304,-1892,153,-399,-1023,-578,-327,186,388,-446
2,250310,-1888,156,-401,-1028,-579,-323,186,388,-446
2,250316,-1888,156,-401,-1028,-579,-323,186,388,-446
2,250321,-1888,156,-401,-1028,-579,-323,186,388,-446
2,250327,-1888,156,-401,-1028,-579,-323,186,388,-446
2,250332,-1891,154,-403,-1027,-578,-322,186,388,-446
2,250338,-1891,154,-403,-1027,-578,-322,186,388,-446
2,250343,-1891,154,-403,-1027,-578,-322,186,388,-446
2,250348,-1891,154,-403,-1027,-578,-322,186,388,-446
2,250354,-1887,155,-399,-1029,-582,-318,186,388,-446
2,250359,-1887,155,-399,-1029,-582,-318,186,388,-446
2,250364,-1887,155,-399,-1029,-582,-318,186,388,-446
2,250371,-1891,152,-401,-1027,-579,-322,180,382,-450
2,250376,-1891,152,-401,-1027,-579,-322,180,382,-450
2,250382,-1891,152,-401,-1027,-579,-322,180,382,-450
2,250387,-1891,152,-401,-1027,-579,-322,180,382,-450
2,250393,-1889,151,-399,-1022,-574,-323,180,382,-450
2,250399,-1889,151,-399,-1022,-574,-323,180,382,-450
2,250404,-1889,151,-399,-1022,-574,-323,180,382,-450
2,250409,-1886,154,-404,-1023,-579,-323,180,382,-450
2,250416,-1886,154,-404,-1023,-579,-323,180,382,-450
2,250421,-1886,154,-404,-1023,-579,-323,180,382,-450
2,250426,-1886,154,-404,-1023,-579,-323,180,382,-450
2,250432,-1886,154,-404,-1023,-579,-323,180,382,-450
2,250438,-1886,154,-404,-1023,-579,-323,180,382,-450
2,250443,-1886,154,-404,-1023,-579,-323,180,382,-450
2,250448,-1886,154,-404,-1023,-579,-323,180,382,-450
2,250455,-1887,154,-407,-1030,-588,-329,180,382,-450
2,250460,-1887,154,-407,-1030,-588,-329,180,382,-450
2,250466,-1887,154,-407,-1030,-588,-329,180,382,-450
2,250471,-1888,152,-409,-1038,-578,-325,180,382,-450
2,250477,-1888,152,-409,-1038,-578,-325,180,382,-450
2,250482,-1888,152,-409,-1038,-578,-325,180,382,-450
2,250488,-1888,152,-409,-1038,-578,-325,180,382,-450
2,250493,-1888,155,-407,-1036,-583,-324,180,382,-450
2,250500,-1888,155,-407,-1036,-583,-324,180,382,-450
2,250505,-1888,155,-407,-1036,-583,-324,180,382,-450
2,250510,-1886,155,-401,-1032,-580,-325,182,382,-446
2,250516,-1886,155,-401,-1032,-580,-325,182,382,-446
2,250521,-1886,155,-401,-1032,-580,-325,182,382,-446
2,250526,-1886,155,-401,-1032,-580,-325,182,382,-446
2,250532,-1887,154,-398,-1029,-580,-324,182,382,-446
2,250537,-1887,154,-398,-1029,-580,-324,182,382,-446
2,250543,-1887,154,-398,-1029,-580,-324,182,382,-446
2,250549,-1887,154,-398,-1029,-580,-324,182,382,-446
2,250554,-1888,152,-403,-1027,-581,-322,182,382,-446
2,250560,-1888,152,-403,-1027,-581,-322,182,382,-446
2,250565,-1888,152,-403,-1027,-581,-322,182,382,-446
2,250571,-1892,152,-402,-1026,-580,-316,182,382,-446
2,250576,-1892,152,-402,-1026,-580,-316,182,382,-446
2,250582,-1892,152,-402,-1026,-580,-316,182,382,-446
2,250588,-1892,152,-402,-1026,-580,-316,182,382,-446
2,250593,-1889,155,-407,-1028,-573,-322,182,382,-446
2,250599,-1889,155,-407,-1028,-573,-322,182,382,-446
2,250605,-1889,155,-407,-1028,-573,-322,182,382,-446
2,250611,-1888,156,-403,-1019,-580,-325,182,382,-446
2,250616,-1888,156,-403,-1019,-580,-325,182,382,-446
2,250621,-1888,156,-403,-1019,-580,-325,182,382,-446
2,250628,-1888,156,-403,-1019,-580,-325,182,382,-446
2,250634,-1890,155,-403,-1027,-581,-328,182,392,-450
2,250639,-1890,155,-403,-1027,-581,-328,182,392,-450
2,250644,-1890,155,-403,-1027,-581,-328,182,392,-450
2,250649,-1890,155,-403,-1027,-581,-328,182,392,-450
2,250654,-1891,154,-399,-1028,-576,-323,182,392,-450
2,250659,-1891,154,-399,-1028,-576,-323,182,392,-450
2,250665,-1891,154,-399,-1028,-576,-323,182,392,-450
2,250671,-1886,154,-404,-1029,-580,-326,182,392,-450
2,250677,-1886,154,-404,-1029,-580,-326,182,392,-450
2,250683,-1886,154,-404,-1029,-580,-326,182,392,-450
2,250688,-1886,154,-404,-1029,-580,-326,182,392,-450
2,250693,-1889,155,-402,-1022,-582,-326,182,392,-450
2,250698,-1889,155,-402,-1022,-582,-326,182,392,-450
2,250704,-1889,155,-402,-1022,-582,-326,182,392,-450
2,250710,-1885,155,-404,-1022,-581,-323,182,392,-450
2,250716,-1885,155,-404,-1022,-581,-323,182,392,-450
2,250721,-1885,155,-404,-1022,-581,-323,182,392,-450
2,250727,-1885,155,-404,-1022,-581,-323,182,392,-450
2,250732,-1888,157,-404,-1023,-575,-328,182,392,-450
2,250738,-1888,157,-404,-1023,-575,-328,182,392,-450
2,250743,-1888,157,-404,-1023,-575,-328,182,392,-450
2,250748,-1888,157,-404,-1023,-575,-328,182,392,-450
2,250754,-1889,156,-401,-1033,-579,-330,182,392,-450
2,250760,-1889,156,-401,-1033,-579,-330,182,392,-450
2,250765,-1889,156,-401,-1033,-579,-330,182,392,-450
2,250769,-1886,155,-404,-1028,-580,-326,182,392,-450
2,250775,-1886,155,-404,-1028,-580,-326,178,386,-448
2,250781,-1886,155,-404,-1028,-580,-326,178,386,-448
2,250786,-1886,155,-404,-1028,-580,-326,178,386,-448
2,250791,-1885,153,-406,-1028,-586,-331,178,386,-448
2,250798,-1885,153,-406,-1028,-586,-331,178,386,-448
2,250803,-1885,153,-406,-1028,-586,-331,178,386,-448
2,250809,-1885,153,-406,-1028,-586,-331,178,386,-448
2,250813,-1887,152,-401,-1024,-584,-328,178,386,-448
2,250819,-1887,152,-401,-1024,-584,-328,178,386,-448
2,250825,-1887,152,-401,-1024,-584,-328,178,386,-448
2,250830,-1885,154,-404,-1018,-578,-326,178,386,-448
2,250835,-1885,154,-404,-1018,-578,-326,178,386,-448
2,250842,-1885,154,-404,-1018,-578,-326,178,386,-448
2,250847,-1885,154,-404,-1018,-578,-326,178,386,-448
2,250853,-1887,151,-407,-1031,-575,-321,178,386,-448
2,250858,-1887,151,-407,-1031,-575,-321,178,386,-448
2,250863,-1887,151,-407,-1031,-575,-321,178,386,-448
2,250869,-1887,151,-407,-1031,-575,-321,178,386,-448
2,250874,-1887,154,-407,-1022,-582,-323,178,386,-448
2,250880,-1887,154,-407,-1022,-582,-323,178,386,-448
2,250886,-1887,154,-407,-1022,-582,-323,178,386,-448
2,250891,-1889,155,-402,-1028,-573,-330,177,387,-445
2,250896,-1889,155,-402,-1028,-573,-330,177,387,-445
2,250901,-1889,155,-402,-1028,-573,-330,177,387,-445
2,250907,-1889,155,-402,-1028,-573,-330,177,387,-445
2,250912,-1887,154,-398,-1026,-578,-325,177,387,-445
2,250918,-1887,154,-398,-1026,-578,-325,177,387,-445
2,250923,-1887,154,-398,-1026,-578,-325,177,387,-445
2,250929,-1887,154,-398,-1026,-578,-325,177,387,-445
2,250934,-1890,150,-408,-1024,-579,-329,177,387,-445
2,250940,-1890,150,-408,-1024,-579,-329,177,387,-445
2,250945,-1890,150,-408,-1024,-579,-329,177,387,-445
2,250951,-1887,154,-401,-1013,-575,-319,177,387,-445
2,250956,-1887,154,-401,-1013,-575,-319,177,387,-445
2,250962,-1887,154,-401,-1013,-575,-319,177,387,-445
2,250968,-1887,154,-401,-1013,-575,-319,177,387,-445
2,250973,-1889,153,-402,-1025,-581,-328,177,387,-445
2,250980,-1889,153,-402,-1025,-581,-328,177,387,-445
2,250985,-1889,153,-402,-1025,-581,-328,177,387,-445
2,250990,-1889,155,-403,-1029,-581,-317,177,387,-445
2,250996,-1889,155,-403,-1029,-581,-317,177,387,-445
2,251001,-1889,155,-403,-1029,-581,-317,177,387,-445
2,251006,-1889,155,-403,-1029,-581,-317,177,387,-445
2,251013,-1887,155,-399,-1024,-576,-322,182,386,-444
2,251017,-1887,155,-399,-1024,-576,-322,182,386,-444
2,251023,-1887,155,-399,-1024,-576,-322,182,386,-444
2,251028,-1887,155,-399,-1024,-576,-322,182,386,-444
2,251033,-1892,153,-396,-1023,-570,-321,182,386,-444
2,251039,-1892,153,-396,-1023,-570,-321,182,386,-444
2,251044,-1892,153,-396,-1023,-570,-321,182,386,-444
2,251051,-1890,156,-398,-1023,-573,-324,182,386,-444
2,251056,-1890,156,-398,-1023,-573,-324,182,386,-444
2,251061,-1890,156,-398,-1023,-573,-324,182,386,-444
2,251066,-1890,156,-398,-1023,-573,-324,182,386,-444
2,251072,-1888,153,-408,-1025,-575,-327,182,386,-444
2,251077,-1888,153,-408,-1025,-575,-327,182,386,-444
2,251083,-1888,153,-408,-1025,-575,-327,182,386,-444
2,251088,-1888,153,-408,-1025,-575,-327,182,386,-444
2,251095,-1889,152,-399,-1019,-578,-326,182,386,-444
2,251100,-1889,152,-399,-1019,-578,-326,182,386,-444
2,251105,-1889,152,-399,-1019,-578,-326,182,386,-444
2,251110,-1890,151,-396,-1018,-575,-322,182,386,-444
2,251116,-1890,151,-396,-1018,-575,-322,182,386,-444
2,251121,-1890,151,-396,-1018,-575,-322,182,386,-444
2,251126,-1890,151,-396,-1018,-575,-322,182,386,-444
2,251132,-1888,156,-405,-1019,-576,-324,182,386,-444
2,251138,-1888,156,-405,-1019,-576,-324,182,386,-444
2,251144,-1888,156,-405,-1019,-576,-324,182,386,-444
2,251149,-1888,156,-405,-1019,-576,-324,182,386,-444
2,251155,-1889,158,-397,-1022,-577,-316,178,388,-452
2,251160,-1889,158,-397,-1022,-577,-316,178,388,-452
2,251166,-1889,158,-397,-1022,-577,-316,178,388,-452
2,251171,-1889,156,-400,-1025,-577,-321,178,388,-452
2,251176,-1889,156,-400,-1025,-577,-321,178,388,-452
2,251182,-1889,156,-400,-1025,-577,-321,178,388,-452
2,251188,-1889,156,-400,-1025,-577,-321,178,388,-452
2,251193,-1887,153,-403,-1029,-584,-327,178,388,-452
2,251197,-1887,153,-403,-1029,-584,-327,178,388,-452
2,251203,-1887,153,-403,-1029,-584,-327,178,388,-452
2,251209,-1887,153,-403,-1029,-584,-327,178,388,-452
2,251214,-1888,154,-401,-1032,-582,-324,178,388,-452
2,251220,-1888,154,-401,-1032,-582,-324,178,388,-452
2,251226,-1888,154,-401,-1032,-582,-324,178,388,-452
2,251231,-1886,155,-410,-1025,-582,-322,178,388,-452
2,251237,-1886,155,-410,-1025,-582,-322,178,388,-452
2,251242,-1886,155,-410,-1025,-582,-322,178,388,-452
2,251247,-1886,155,-410,-1025,-582,-322,178,388,-452
2,251253,-1890,153,-406,-1024,-578,-323,178,388,-452
2,251258,-1890,153,-406,-1024,-578,-323,178,388,-452
2,251265,-1890,153,-406,-1024,-578,-323,178,388,-452
2,251270,-1890,153,-406,-1024,-578,-323,178,388,-452
2,251276,-1888,154,-398,-1022,-574,-321,188,384,-454
2,251281,-1888,154,-398,-1022,-574,-321,188,384,-454
2,251287,-1888,154,-398,-1022,-574,-321,188,384,-454
2,251293,-1887,154,-404,-1024,-577,-330,188,384,-454
2,251298,-1887,154,-404,-1024,-577,-330,188,384,-454
2,251303,-1887,154,-404,-1024,-577,-330,188,384,-454
2,251310,-1887,154,-404,-1024,-577,-330,188,384,-454
2,251315,-1886,155,-401,-1025,-582,-323,188,384,-454
2,251321,-1886,155,-401,-1025,-582,-323,188,384,-454
2,251327,-1886,155,-401,-1025,-582,-323,188,384,-454
2,251333,-1889,157,-402,-1026,-588,-327,188,384,-454
2,251338,-1889,157,-402,-1026,-588,-327,188,384,-454
2,251344,-1889,157,-402,-1026,-588,-327,188,384,-454
2,251350,-1889,157,-402,-1026,-588,-327,188,384,-454
2,251355,-1889,153,-400,-1027,-585,-327,188,384,-454
2,251361,-1889,153,-400,-1027,-585,-327,188,384,-454
2,251366,-1889,153,-400,-1027,-585,-327,188,384,-454
2,251371,-1887,152,-405,-1029,-578,-320,188,384,-454
2,251376,-1887,152,-405,-1029,-578,-320,188,384,-454
2,251381,-1887,152,-405,-1029,-578,-320,188,384,-454
2,251386,-1887,152,-405,-1029,-578,-320,188,384,-454
2,251393,-1889,153,-401,-1025,-584,-326,188,384,-454
2,251398,-1889,153,-401,-1025,-584,-326,188,384,-454
2,251404,-1889,153,-401,-1025,-584,-326,188,384,-454
2,251409,-1889,153,-401,-1025,-584,-326,188,384,-454
2,251414,-1888,154,-398,-1023,-580,-321,184,392,-442
2,251419,-1888,154,-398,-1023,-580,-321,184,392,-442
2,251425,-1888,154,-398,-1023,-580,-321,184,392,-442
2,251430,-1888,156,-393,-1024,-582,-325,184,392,-442
2,251436,-1888,156,-393,-1024,-582,-325,184,392,-442
2,251441,-1888,156,-393,-1024,-582,-325,184,392,-442
2,251446,-1888,156,-393,-1024,-582,-325,184,392,-442
2,251451,-1889,153,-402,-1024,-583,-320,184,392,-442
2,251456,-1889,153,-402,-1024,-583,-320,184,392,-442
2,251461,-1889,153,-402,-1024,-583,-320,184,392,-442
2,251466,-1889,153,-402,-1024,-583,-320,184,392,-442
2,251472,-1889,157,-406,-1021,-577,-319,184,392,-442
2,251478,-1889,157,-406,-1021,-577,-319,184,392,-442
2,251483,-1889,157,-406,-1021,-577,-319,184,392,-442
2,251489,-1889,157,-406,-1021,-577,-319,184,392,-442
2,251494,-1888,156,-404,-1030,-584,-326,184,392,-442
2,251500,-1888,156,-404,-1030,-584,-326,184,392,-442
2,251505,-1888,156,-404,-1030,-584,-326,184,392,-442
2,251510,-1887,155,-398,-1017,-581,-332,184,392,-442
2,251516,-1887,155,-398,-1017,-581,-332,184,392,-442
2,251523,-1887,155,-398,-1017,-581,-332,184,392,-442
2,251528,-1887,155,-398,-1017,-581,-332,184,392,-442
2,251534,-1886,153,-399,-1020,-577,-331,181,391,-453
2,251540,-1886,153,-399,-1020,-577,-331,181,391,-453
2,251545,-1886,153,-399,-1020,-577,-331,181,391,-453
2,251551,-1890,156,-399,-1031,-578,-326,181,391,-453
2,251556,-1890,156,-399,-1031,-578,-326,181,391,-453
2,251561,-1890,156,-399,-1031,-578,-326,181,391,-453
2,251567,-1890,156,-399,-1031,-578,-326,181,391,-453
2,251573,-1889,155,-402,-1023,-578,-322,181,391,-453
2,251578,-1889,155,-402,-1023,-578,-322,181,391,-453
2,251583,-1889,155,-402,-1023,-578,-322,181,391,-453
2,251588,-1889,155,-402,-1023,-578,-322,181,391,-453
2,251594,-1888,155,-407,-1019,-580,-317,181,391,-453
2,251599,-1888,155,-407,-1019,-580,-317,181,391,-453
2,251604,-1888,155,-407,-1019,-580,-317,181,391,-453
2,251610,-1888,155,-407,-1019,-580,-317,181,391,-453
2,251616,-1885,152,-405,-1030,-578,-326,181,391,-453
2,251621,-1885,152,-405,-1030,-578,-326,181,391,-453
2,251627,-1885,152,-405,-1030,-578,-326,181,391,-453
2,251632,-1889,154,-403,-1022,-570,-329,181,391,-453
2,251638,-1889,154,-403,-1022,-570,-329,181,391,-453
2,251643,-1889,154,-403,-1022,-570,-329,181,391,-453
2,251649,-1889,154,-403,-1022,-570,-329,181,391,-453
2,251654,-1890,154,-397,-1021,-577,-320,181,389,-449
2,251660,-1890,154,-397,-1021,-577,-320,181,389,-449
2,251665,-1890,154,-397,-1021,-577,-320,181,389,-449
2,251671,-1887,153,-398,-1022,-582,-322,181,389,-449
2,251676,-1887,153,-398,-1022,-582,-322,181,389,-449
2,251682,-1887,153,-398,-1022,-582,-322,181,389,-449
2,251687,-1887,153,-398,-1022,-582,-322,181,389,-449
2,251694,-1890,153,-409,-1029,-578,-323,181,389,-449
2,251699,-1890,153,-409,-1029,-578,-323,181,389,-449
2,251704,-1890,153,-409,-1029,-578,-323,181,389,-449
2,251710,-1890,153,-409,-1029,-578,-323,181,389,-449
2,251715,-1885,158,-400,-1026,-579,-320,181,389,-449
2,251721,-1885,158,-400,-1026,-579,-320,181,389,-449
2,251726,-1885,158,-400,-1026,-579,-320,181,389,-449
2,251731,-1890,157,-407,-1017,-585,-329,181,389,-449
2,251738,-1890,157,-407,-1017,-585,-329,181,389,-449
2,251743,-1890,157,-407,-1017,-585,-329,181,389,-449
2,251748,-1890,157,-407,-1017,-585,-329,181,389,-449
2,251754,-1886,155,-407,-1023,-582,-331,181,389,-449
2,251759,-1886,155,-407,-1023,-582,-331,181,389,-449
2,251764,-1886,155,-407,-1023,-582,-331,181,389,-449
2,251770,-1886,155,-407,-1023,-582,-331,181,389,-449
2,251776,-1887,153,-407,-1022,-582,-321,181,389,-449
2,251782,-1887,153,-407,-1022,-582,-321,181,389,-449
2,251787,-1887,153,-407,-1022,-582,-321,181,389,-449
2,251793,-1885,153,-401,-1019,-583,-331,182,382,-440
2,251798,-1885,153,-401,-1019,-583,-331,182,382,-440
2,251804,-1885,153,-401,-1019,-583,-331,182,382,-440
2,251810,-1885,153,-401,-1019,-583,-331,182,382,-440
2,251816,-1889,151,-406,-1031,-577,-331,182,382,-440
2,251822,-1889,151,-406,-1031,-577,-331,182,382,-440
2,251827,-1889,151,-406,-1031,-577,-331,182,382,-440
2,251833,-1886,155,-399,-1028,-581,-328,182,382,-440
2,251838,-1886,155,-399,-1028,-581,-328,182,382,-440
2,251844,-1886,155,-399,-1028,-581,-328,182,382,-440
2,251849,-1886,155,-399,-1028,-581,-328,182,382,-440
2,251855,-1890,153,-403,-1029,-582,-326,182,382,-440
2,251860,-1890,153,-403,-1029,-582,-326,182,382,-440
2,251866,-1890,153,-403,-1029,-582,-326,182,382,-440
2,251871,-1891,155,-405,-1023,-576,-318,182,382,-440
2,251877,-1891,155,-405,-1023,-576,-318,182,382,-440
2,251882,-1891,155,-405,-1023,-576,-318,182,382,-440
2,251888,-1891,155,-405,-1023,-576,-318,182,382,-440
2,251893,-1892,154,-403,-1020,-583,-329,182,382,-440
2,251899,-1892,154,-403,-1020,-583,-329,182,382,-440
2,251905,-1892,154,-403,-1020,-583,-329,182,382,-440
2,251911,-1892,154,-403,-1020,-583,-329,182,382,-440
2,251916,-1888,157,-405,-1024,-583,-320,183,379,-445
2,251921,-1888,157,-405,-1024,-583,-320,183,379,-445
2,251926,-1888,157,-405,-1024,-583,-320,183,379,-445
2,251932,-1888,156,-396,-1022,-580,-319,183,379,-445
2,251938,-1888,156,-396,-1022,-580,-319,183,379,-445
2,251943,-1888,156,-396,-1022,-580,-319,183,379,-445
2,251949,-1888,156,-396,-1022,-580,-319,183,379,-445
2,251955,-1889,155,-405,-1029,-580,-321,183,379,-445
2,251960,-1889,155,-405,-1029,-580,-321,183,379,-445
2,251966,-1889,155,-405,-1029,-580,-321,183,379,-445
2,251971,-1888,155,-409,-1033,-581,-323,183,379,-445
2,251977,-1888,155,-409,-1033,-581,-323,183,379,-445
2,251983,-1888,155,-409,-1033,-581,-323,183,379,-445
2,251987,-1888,155,-409,-1033,-581,-323,183,379,-445
2,251994,-1887,155,-405,-1028,-574,-317,183,379,-445
2,251999,-1887,155,-405,-1028,-574,-317,183,379,-445
2,252004,-1887,155,-405,-1028,-574,-317,183,379,-445
2,252009,-1887,155,-405,-1028,-574,-317,183,379,-445
2,252015,-1888,152,-410,-1019,-575,-325,183,379,-445
2,252020,-1888,152,-410,-1019,-575,-325,183,379,-445
2,252026,-1888,152,-410,-1019,-575,-325,183,379,-445
2,252032,-1887,156,-406,-1018,-578,-324,183,379,-445
2,252038,-1887,156,-406,-1018,-578,-324,183,379,-445
2,252043,-1887,156,-406,-1018,-578,-324,183,379,-445
2,252049,-1887,156,-406,-1018,-578,-324,183,379,-445
2,252055,-1888,154,-401,-1019,-578,-320,192,388,-452
2,252060,-1888,154,-401,-1019,-578,-320,192,388,-452
2,252066,-1888,154,-401,-1019,-578,-320,192,388,-452
2,252071,-1889,154,-401,-1026,-580,-320,192,388,-452
2,252077,-1889,154,-401,-1026,-580,-320,192,388,-452
2,252082,-1889,154,-401,-1026,-580,-320,192,388,-452
2,252088,-1889,154,-401,-1026,-580,-320,192,388,-452
2,252093,-1888,155,-402,-1028,-575,-324,192,388,-452
2,252098,-1888,155,-402,-1028,-575,-324,192,388,-452
2,252104,-1888,155,-402,-1028,-575,-324,192,388,-452
2,252109,-1888,155,-402,-1028,-575,-324,192,388,-452
2,252114,-1888,155,-403,-1028,-580,-325,192,388,-452
2,252120,-1888,155,-403,-1028,-580,-325,192,388,-452
2,252126,-1888,155,-403,-1028,-580,-325,192,388,-452
2,252132,-1889,155,-404,-1015,-580,-327,192,388,-452
2,252137,-1889,155,-404,-1015,-580,-327,192,388,-452
2,252142,-1889,155,-404,-1015,-580,-327,192,388,-452
2,252147,-1889,155,-404,-1015,-580,-327,192,388,-452
2,252153,-1885,152,-401,-1016,-581,-327,192,388,-452
2,252158,-1885,152,-401,-1016,-581,-327,192,388,-452
2,252164,-1885,152,-401,-1016,-581,-327,192,388,-452
2,252170,-1885,152,-401,-1016,-581,-327,192,388,-452
2,252176,-1886,155,-399,-1028,-581,-329,179,391,-451
2,252181,-1886,155,-399,-1028,-581,-329,179,391,-451
2,252186,-1886,155,-399,-1028,-581,-329,179,391,-451
2,252191,-1889,155,-404,-1028,-581,-328,179,391,-451
2,252197,-1889,155,-404,-1028,-581,-328,179,391,-451
2,252203,-1889,155,-404,-1028,-581,-328,179,391,-451
2,252208,-1889,155,-404,-1028,-581,-328,179,391,-451
2,252214,-1887,155,-399,-1023,-589,-328,179,391,-451
2,252219,-1887,155,-399,-1023,-589,-328,179,391,-451
2,252224,-1887,155,-399,-1023,-589,-328,179,391,-451
2,252229,-1887,155,-399,-1023,-589,-328,179,391,-451
2,252235,-1886,155,-400,-1026,-581,-324,179,391,-451
2,252240,-1886,155,-400,-1026,-581,-324,179,391,-451
2,252247,-1886,155,-400,-1026,-581,-324,179,391,-451
2,252252,-1888,156,-397,-1021,-577,-320,179,391,-451
2,252258,-1888,156,-397,-1021,-577,-320,179,391,-451
2,252263,-1888,156,-397,-1021,-577,-320,179,391,-451
2,252269,-1888,156,-397,-1021,-577,-320,179,391,-451
2,252274,-1887,155,-403,-1025,-579,-330,179,391,-451
2,252279,-1887,155,-403,-1025,-579,-330,179,391,-451
2,252285,-1887,155,-403,-1025,-579,-330,179,391,-451
2,252291,-1887,155,-403,-1025,-579,-330,179,391,-451
2,252296,-1886,153,-397,-1032,-586,-331,190,382,-444
2,252302,-1886,153,-397,-1032,-586,-331,190,382,-444
2,252307,-1886,153,-397,-1032,-586,-331,190,382,-444
2,252312,-1887,156,-395,-1031,-581,-324,190,382,-444
2,252317,-1887,156,-395,-1031,-581,-324,190,382,-444
2,252323,-1887,156,-395,-1031,-581,-324,190,382,-444
2,252328,-1887,156,-395,-1031,-581,-324,190,382,-444
2,252335,-1886,152,-398,-1026,-578,-319,190,382,-444
2,252340,-1886,152,-398,-1026,-578,-319,190,382,-444
2,252345,-1886,152,-398,-1026,-578,-319,190,382,-444
2,252351,-1886,152,-398,-1026,-578,-319,190,382,-444
2,252356,-1888,153,-407,-1028,-578,-328,190,382,-444
2,252362,-1888,153,-407,-1028,-578,-328,190,382,-444
2,252367,-1888,153,-407,-1028,-578,-328,190,382,-444
2,252374,-1887,150,-398,-1028,-577,-329,190,382,-444
2,252379,-1887,150,-398,-1028,-577,-329,190,382,-444
2,252384,-1887,150,-398,-1028,-577,-329,190,382,-444
2,252389,-1887,150,-398,-1028,-577,-329,190,382,-444
2,252395,-1889,154,-396,-1023,-581,-325,190,382,-444
2,252400,-1889,154,-396,-1023,-581,-325,190,382,-444
2,252405,-1889,154,-396,-1023,-581,-325,190,382,-444
2,252411,-1889,154,-396,-1023,-581,-325,190,382,-444
2,252417,-1888,157,-403,-1023,-575,-322,190,382,-444
2,252422,-1888,157,-403,-1023,-575,-322,190,382,-444
2,252427,-1888,157,-403,-1023,-575,-322,190,382,-444
2,252433,-1891,156,-401,-1030,-578,-320,171,381,-445
2,252438,-1891,156,-401,-1030,-578,-320,171,381,-445
2,252443,-1891,156,-401,-1030,-578,-320,171,381,-445
2,252448,-1891,156,-401,-1030,-578,-320,171,381,-445
2,252454,-1886,152,-396,-1019,-575,-323,171,381,-445
2,252460,-1886,152,-396,-1019,-575,-323,171,381,-445
2,252465,-1886,152,-396,-1019,-575,-323,171,381,-445
2,252471,-1886,152,-396,-1019,-575,-323,171,381,-445
2,252477,-1888,155,-403,-1017,-576,-325,171,381,-445
2,252482,-1888,155,-403,-1017,-576,-325,171,381,-445
2,252487,-1888,155,-403,-1017,-576,-325,171,381,-445
2,252493,-1885,153,-399,-1018,-580,-329,171,381,-445
2,252499,-1885,153,-399,-1018,-580,-329,171,381,-445
2,252505,-1885,153,-399,-1018,-580,-329,171,381,-445
2,252511,-1885,153,-399,-1018,-580,-329,171,381,-445
2,252516,-1889,154,-407,-1019,-580,-323,171,381,-445
2,252522,-1889,154,-407,-1019,-580,-323,171,381,-445
2,252528,-1889,154,-407,-1019,-580,-323,171,381,-445
2,252533,-1887,154,-400,-1030,-587,-324,171,381,-445
2,252538,-1887,154,-400,-1030,-587,-324,171,381,-445
2,252544,-1887,154,-400,-1030,-587,-324,171,381,-445
2,252549,-1887,154,-400,-1030,-587,-324,171,381,-445
2,252554,-1887,152,-394,-1025,-583,-331,176,392,-440
2,252559,-1887,152,-394,-1025,-583,-331,176,392,-440
2,252564,-1887,152,-394,-1025,-583,-331,176,392,-440
2,252570,-1887,152,-394,-1025,-583,-331,176,392,-440
2,252575,-1886,154,-395,-1027,-572,-326,176,392,-440
2,252580,-1886,154,-395,-1027,-572,-326,176,392,-440
2,252587,-1886,154,-395,-1027,-572,-326,176,392,-440
2,252592,-1887,156,-399,-1030,-578,-326,176,392,-440
2,252598,-1887,156,-399,-1030,-578,-326,176,392,-440
2,252603,-1887,156,-399,-1030,-578,-326,176,392,-440
2,252608,-1887,156,-399,-1030,-578,-326,176,392,-440
2,252614,-1884,152,-406,-1018,-576,-325,176,392,-440
2,252619,-1884,152,-406,-1018,-576,-325,176,392,-440
2,252625,-1884,152,-406,-1018,-576,-325,176,392,-440
2,252631,-1884,152,-406,-1018,-576,-325,176,392,-440
2,252637,-1884,151,-401,-1023,-577,-324,176,392,-440
2,252642,-1884,151,-401,-1023,-577,-324,176,392,-440
2,252647,-1884,151,-401,-1023,-577,-324,176,392,-440
2,252653,-1887,154,-398,-1028,-579,-323,176,392,-440
2,252658,-1887,154,-398,-1028,-579,-323,176,392,-440
2,252664,-1887,154,-398,-1028,-579,-323,176,392,-440
2,252670,-1887,154,-398,-1028,-579,-323,176,392,-440
2,252676,-1889,157,-395,-1025,-576,-329,176,392,-440
2,252685,-1889,157,-395,-1025,-576,-329,176,392,-440
2,252690,-1889,157,-395,-1025,-576,-329,176,392,-440
2,252695,-1888,154,-397,-1029,-576,-318,179,393,-449
2,252701,-1888,154,-397,-1029,-576,-318,179,393,-449
2,252706,-1888,154,-397,-1029,-576,-318,179,393,-449
2,252711,-1888,154,-397,-1029,-576,-318,179,393,-449
2,252717,-1891,154,-400,-1029,-581,-323,179,393,-449
2,252723,-1891,154,-400,-1029,-581,-323,179,393,-449
2,252728,-1891,154,-400,-1029,-581,-323,179,393,-449
2,252733,-1888,149,-403,-1031,-579,-325,179,393,-449
2,252738,-1888,149,-403,-1031,-579,-325,179,393,-449
2,252744,-1888,149,-403,-1031,-579,-325,179,393,-449
2,252750,-1888,149,-403,-1031,-579,-325,179,393,-449
2,252755,-1886,155,-404,-1021,-579,-325,179,393,-449
2,252762,-1886,155,-404,-1021,-579,-325,179,393,-449
2,252767,-1886,155,-404,-1021,-579,-325,179,393,-449
2,252773,-1888,154,-401,-1023,-573,-322,179,393,-449
2,252778,-1888,154,-401,-1023,-573,-322,179,393,-449
2,252783,-1888,154,-401,-1023,-573,-322,179,393,-449
2,252789,-1888,154,-401,-1023,-573,-322,179,393,-449
2,252794,-1888,154,-401,-1023,-573,-322,179,393,-449
2,252800,-1888,154,-401,-1023,-573,-322,179,393,-449
2,252806,-1888,154,-401,-1023,-573,-322,179,393,-449
2,252811,-1888,154,-401,-1023,-573,-322,179,393,-449
2,252816,-1892,157,-400,-1025,-574,-327,191,389,-443
2,252821,-1892,157,-400,-1025,-574,-327,191,389,-443
2,252827,-1892,157,-400,-1025,-574,-327,191,389,-443
2,252832,-1891,157,-404,-1026,-576,-329,191,389,-443
2,252838,-1891,157,-404,-1026,-576,-329,191,389,-443
2,252844,-1891,157,-404,-1026,-576,-329,191,389,-443
2,252850,-1891,157,-404,-1026,-576,-329,191,389,-443
2,252855,-1885,152,-404,-1025,-581,-323,191,389,-443
2,252860,-1885,152,-404,-1025,-581,-323,191,389,-443
2,252866,-1885,152,-404,-1025,-581,-323,191,389,-443
2,252871,-1885,152,-404,-1025,-581,-323,191,389,-443
2,252876,-1888,153,-400,-1033,-577,-318,191,389,-443
2,252882,-1888,153,-400,-1033,-577,-318,191,389,-443
2,252888,-1888,153,-400,-1033,-577,-318,191,389,-443
2,252894,-1891,154,-399,-1030,-581,-326,191,389,-443
2,252899,-1891,154,-399,-1030,-581,-326,191,389,-443
2,252904,-1891,154,-399,-1030,-581,-326,191,389,-443
2,252910,-1891,154,-399,-1030,-581,-326,191,389,-443
2,252915,-1888,152,-406,-1028,-573,-323,191,389,-443
2,252920,-1888,152,-406,-1028,-573,-323,191,389,-443
2,252926,-1888,152,-406,-1028,-573,-323,191,389,-443
2,252932,-1888,152,-406,-1028,-573,-323,191,389,-443
2,252937,-1890,154,-397,-1031,-583,-323,185,391,-445
2,252943,-1890,154,-397,-1031,-583,-323,185,391,-445
2,252948,-1890,154,-397,-1031,-583,-323,185,391,-445
2,252953,-1889,155,-393,-1022,-579,-328,185,391,-445
2,252959,-1889,155,-393,-1022,-579,-328,185,391,-445
2,252964,-1889,155,-393,-1022,-579,-328,185,391,-445
2,252971,-1889,155,-393,-1022,-579,-328,185,391,-445
2,252976,-1888,155,-396,-1021,-584,-327,185,391,-445
2,252981,-1888,155,-396,-1021,-584,-327,185,391,-445
2,252987,-1888,155,-396,-1021,-584,-327,185,391,-445
2,252992,-1888,155,-396,-1021,-584,-327,185,391,-445
2,252997,-1889,152,-402,-1026,-583,-328,185,391,-445
2,253002,-1889,152,-402,-1026,-583,-328,185,391,-445
2,253007,-1889,152,-402,-1026,-583,-328,185,391,-445
2,253012,-1892,151,-402,-1019,-582,-320,185,391,-445
2,253019,-1892,151,-402,-1019,-582,-320,185,391,-445
2,253024,-1892,151,-402,-1019,-582,-320,185,391,-445
2,253029,-1892,151,-402,-1019,-582,-320,185,391,-445
2,253035,-1891,157,-402,-1014,-576,-319,185,391,-445
2,253040,-1891,157,-402,-1014,-576,-319,185,391,-445
2,253046,-1891,157,-402,-1014,-576,-319,185,391,-445
2,253051,-1891,157,-402,-1014,-576,-319,185,391,-445
2,253057,-1889,153,-403,-1021,-577,-319,185,391,-445
2,253062,-1889,153,-403,-1021,-577,-319,185,391,-445
2,253068,-1889,153,-403,-1021,-577,-319,185,391,-445
2,253073,-1888,150,-399,-1023,-576,-327,177,371,-451
2,253078,-1888,150,-399,-1023,-576,-327,177,371,-451
2,253083,-1888,150,-399,-1023,-576,-327,177,371,-451
2,253088,-1888,150,-399,-1023,-576,-327,177,371,-451
2,253094,-1890,152,-402,-1024,-572,-319,177,371,-451
2,253100,-1890,152,-402,-1024,-572,-319,177,371,-451
2,253105,-1890,152,-402,-1024,-572,-319,177,371,-451
2,253111,-1890,152,-402,-1024,-572,-319,177,371,-451
2,253116,-1890,154,-403,-1031,-573,-331,177,371,-451
2,253122,-1890,154,-403,-1031,-573,-331,177,371,-451
2,253127,-1890,154,-403,-1031,-573,-331,177,371,-451
2,253133,-1889,155,-406,-1028,-576,-321,177,371,-451
2,253138,-1889,155,-406,-1028,-576,-321,177,371,-451
2,253145,-1889,155,-406,-1028,-576,-321,177,371,-451
2,253150,-1889,155,-406,-1028,-576,-321,177,371,-451
2,253156,-1887,153,-404,-1017,-585,-323,177,371,-451
2,253161,-1887,153,-404,-1017,-585,-323,177,371,-451
2,253166,-1887,153,-404,-1017,-585,-323,177,371,-451
2,253172,-1887,153,-404,-1017,-585,-323,177,371,-451
2,253177,-1889,156,-401,-1029,-580,-327,177,371,-451
2,253184,-1889,156,-401,-1029,-580,-327,177,371,-451
2,253189,-1889,156,-401,-1029,-580,-327,177,371,-451
2,253194,-1888,155,-404,-1020,-575,-329,177,397,-451
2,253200,-1888,155,-404,-1020,-575,-329,177,397,-451
2,253205,-1888,155,-404,-1020,-575,-329,177,397,-451
2,253210,-1888,155,-404,-1020,-575,-329,177,397,-451
2,253215,-1889,155,-401,-1027,-574,-332,177,397,-451
2,253221,-1889,155,-401,-1027,-574,-332,177,397,-451
2,253227,-1889,155,-401,-1027,-574,-332,177,397,-451
2,253233,-1889,155,-401,-1027,-574,-332,177,397,-451
2,253238,-1888,153,-399,-1020,-578,-328,177,397,-451
2,253243,-1888,153,-399,-1020,-578,-328,177,397,-451
2,253249,-1888,153,-399,-1020,-578,-328,177,397,-451
2,253254,-1890,157,-402,-1021,-576,-323,177,397,-451
2,253259,-1890,157,-402,-1021,-576,-323,177,397,-451
2,253266,-1890,157,-402,-1021,-576,-323,177,397,-451
2,253272,-1890,157,-402,-1021,-576,-323,177,397,-451
2,253277,-1890,154,-403,-1025,-580,-321,177,397,-451
2,253283,-1890,154,-403,-1025,-580,-321,177,397,-451
2,253288,-1890,154,-403,-1025,-580,-321,177,397,-451
2,253293,-1889,154,-404,-1023,-576,-325,177,397,-451
2,253298,-1889,154,-404,-1023,-576,-325,177,397,-451
2,253304,-1889,154,-404,-1023,-576,-325,177,397,-451
2,253309,-1889,154,-404,-1023,-576,-325,177,397,-451
2,253316,-1889,157,-403,-1028,-573,-325,177,397,-451
2,253321,-1889,157,-403,-1028,-573,-325,177,397,-451
2,253327,-1889,157,-403,-1028,-573,-325,177,397,-451
2,253332,-1889,157,-403,-1028,-573,-325,177,397,-451
2,253337,-1888,152,-398,-1023,-574,-325,183,395,-443
2,253343,-1888,152,-398,-1023,-574,-325,183,395,-443
2,253348,-1888,152,-398,-1023,-574,-325,183,395,-443
2,253355,-1885,152,-403,-1022,-571,-331,183,395,-443
2,253360,-1885,152,-403,-1022,-571,-331,183,395,-443
2,253365,-1885,152,-403,-1022,-571,-331,183,395,-443
2,253370,-1885,152,-403,-1022,-571,-331,183,395,-443
2,253375,-1889,153,-404,-1020,-573,-327,183,395,-443
2,253381,-1889,153,-404,-1020,-573,-327,183,395,-443
2,253386,-1889,153,-404,-1020,-573,-327,183,395,-443
2,253391,-1889,153,-404,-1020,-573,-327,183,395,-443
2,253396,-1885,153,-397,-1017,-581,-328,183,395,-443
2,253403,-1885,153,-397,-1017,-581,-328,183,395,-443
2,253408,-1885,153,-397,-1017,-581,-328,183,395,-443
2,253414,-1890,153,-404,-1022,-572,-318,183,395,-443
2,253419,-1890,153,-404,-1022,-572,-318,183,395,-443
2,253424,-1890,153,-404,-1022,-572,-318,183,395,-443
2,253429,-1890,153,-404,-1022,-572,-318,183,395,-443
2,253435,-1888,154,-408,-1021,-578,-318,183,395,-443
2,253441,-1888,154,-408,-1021,-578,-318,183,395,-443
2,253447,-1888,154,-408,-1021,-578,-318,183,395,-443
2,253452,-1888,154,-408,-1021,-578,-318,183,395,-443
2,253458,-1886,153,-402,-1028,-579,-319,182,392,-450
2,253463,-1886,153,-402,-1028,-579,-319,182,392,-450
2,253469,-1886,153,-402,-1028,-579,-319,182,392,-450
2,253474,-1886,154,-402,-1027,-583,-330,182,392,-450
2,253479,-1886,154,-402,-1027,-583,-330,182,392,-450
2,253485,-1886,154,-402,-1027,-583,-330,182,392,-450
2,253490,-1886,154,-402,-1027,-583,-330,182,392,-450
2,253495,-1889,154,-404,-1021,-579,-332,182,392,-450
2,253500,-1889,154,-404,-1021,-579,-332,182,392,-450
2,253506,-1889,154,-404,-1021,-579,-332,182,392,-450
2,253511,-1889,154,-404,-1021,-579,-332,182,392,-450
2,253516,-1887,155,-395,-1022,-579,-320,182,392,-450
2,253522,-1887,155,-395,-1022,-579,-320,182,392,-450
2,253528,-1887,155,-395,-1022,-579,-320,182,392,-450
2,253533,-1888,155,-409,-1022,-578,-321,182,392,-450
2,253539,-1888,155,-409,-1022,-578,-321,182,392,-450
2,253544,-1888,155,-409,-1022,-578,-321,182,392,-450
2,253549,-1888,155,-409,-1022,-578,-321,182,392,-450
2,253554,-1888,152,-401,-1029,-584,-328,182,392,-450
2,253559,-1888,152,-401,-1029,-584,-328,182,392,-450
2,253565,-1888,152,-401,-1029,-584,-328,182,392,-450
2,253571,-1888,152,-401,-1029,-584,-328,182,392,-450
2,253577,-1888,153,-405,-1031,-580,-330,188,380,-440
2,253582,-1888,153,-405,-1031,-580,-330,188,380,-440
2,253588,-1888,153,-405,-1031,-580,-330,188,380,-440
2,253593,-1885,156,-398,-1028,-576,-325,188,380,-440
2,253598,-1885,156,-398,-1028,-576,-325,188,380,-440
2,253604,-1885,156,-398,-1028,-576,-325,188,380,-440
2,253609,-1885,156,-398,-1028,-576,-325,188,380,-440
2,253615,-1888,156,-397,-1029,-576,-332,188,380,-440
2,253620,-1888,156,-397,-1029,-576,-332,188,380,-440
2,253626,-1888,156,-397,-1029,-576,-332,188,380,-440
2,253631,-1888,156,-397,-1029,-576,-332,188,380,-440
2,253637,-1891,156,-400,-1023,-581,-329,188,380,-440
2,253642,-1891,156,-400,-1023,-581,-329,188,380,-440
2,253649,-1891,156,-400,-1023,-581,-329,188,380,-440
2,253655,-1888,153,-402,-1028,-580,-325,188,380,-440
2,253661,-1888,153,-402,-1028,-580,-325,188,380,-440
2,253666,-1888,153,-402,-1028,-580,-325,188,380,-440
2,253671,-1888,153,-402,-1028,-580,-325,188,380,-440
2,253677,-1889,153,-406,-1030,-581,-334,188,380,-440
2,253682,-1889,153,-406,-1030,-581,-334,188,380,-440
2,253687,-1889,153,-406,-1030,-581,-334,188,380,-440
2,253693,-1889,153,-406,-1030,-581,-334,188,380,-440
2,253699,-1887,155,-403,-1023,-579,-329,188,380,-440
2,253704,-1887,155,-403,-1023,-579,-329,188,380,-440
2,253710,-1887,155,-403,-1023,-579,-329,188,380,-440
2,253715,-1887,153,-401,-1026,-577,-327,183,381,-457
2,253721,-1887,153,-401,-1026,-577,-327,183,381,-457
2,253726,-1887,153,-401,-1026,-577,-327,183,381,-457
2,253732,-1887,153,-401,-1026,-577,-327,183,381,-457
2,253737,-1887,153,-400,-1025,-584,-326,183,381,-457
2,253744,-1887,153,-400,-1025,-584,-326,183,381,-457
2,253749,-1887,153,-400,-1025,-584,-326,183,381,-457
2,253755,-1886,154,-402,-1026,-579,-323,183,381,-457
2,253760,-1886,154,-402,-1026,-579,-323,183,381,-457
2,253765,-1886,154,-402,-1026,-579,-323,183,381,-457
2,253770,-1886,154,-402,-1026,-579,-323,183,381,-457
2,253776,-1889,157,-402,-1020,-572,-323,183,381,-457
2,253780,-1889,157,-402,-1020,-572,-323,183,381,-457
2,253787,-1889,157,-402,-1020,-572,-323,183,381,-457
2,253792,-1889,157,-402,-1020,-572,-323,183,381,-457
2,253798,-1891,153,-403,-1021,-573,-321,183,381,-457
2,253803,-1891,153,-403,-1021,-573,-321,183,381,-457
2,253809,-1891,153,-403,-1021,-573,-321,183,381,-457
2,253814,-1891,157,-400,-1020,-577,-320,183,381,-457
2,253820,-1891,157,-400,-1020,-577,-320,183,381,-457
2,253826,-1891,157,-400,-1020,-577,-320,183,381,-457
2,253832,-1891,157,-400,-1020,-577,-320,183,381,-457
2,253837,-1889,154,-401,-1023,-582,-318,182,392,-446
2,253842,-1889,154,-401,-1023,-582,-318,182,392,-446
2,253848,-1889,154,-401,-1023,-582,-318,182,392,-446
2,253853,-1889,154,-401,-1023,-582,-318,182,392,-446
2,253858,-1888,155,-402,-1023,-586,-315,182,392,-446
2,253864,-1888,155,-402,-1023,-586,-315,182,392,-446
2,253870,-1888,155,-402,-1023,-586,-315,182,392,-446
2,253876,-1887,152,-402,-1021,-582,-322,182,392,-446
2,253881,-1887,152,-402,-1021,-582,-322,182,392,-446
2,253886,-1887,152,-402,-1021,-582,-322,182,392,-446
2,253892,-1887,152,-402,-1021,-582,-322,182,392,-446
2,253897,-1886,154,-401,-1026,-575,-320,182,392,-446
2,253903,-1886,154,-401,-1026,-575,-320,182,392,-446
2,253908,-1886,154,-401,-1026,-575,-320,182,392,-446
2,253914,-1887,156,-404,-1020,-577,-320,182,392,-446
2,253920,-1887,156,-404,-1020,-577,-320,182,392,-446
2,253925,-1887,156,-404,-1020,-577,-320,182,392,-446
2,253930,-1887,156,-404,-1020,-577,-320,182,392,-446
2,253936,-1888,153,-405,-1021,-576,-332,182,392,-446
2,253941,-1888,153,-405,-1021,-576,-332,182,392,-446
2,253946,-1888,153,-405,-1021,-576,-332,182,392,-446
2,253953,-1888,153,-405,-1021,-576,-332,182,392,-446
2,253957,-1889,154,-398,-1022,-575,-327,182,392,-446
2,253963,-1889,154,-398,-1022,-575,-327,182,392,-446
2,253968,-1889,154,-398,-1022,-575,-327,182,392,-446
2,253974,-1889,155,-402,-1025,-574,-323,182,392,-446
2,253978,-1889,155,-402,-1025,-574,-323,173,397,-447
2,253984,-1889,155,-402,-1025,-574,-323,173,397,-447
2,253989,-1889,155,-402,-1025,-574,-323,173,397,-447
2,253996,-1887,152,-403,-1016,-579,-329,173,397,-447
2,254001,-1887,152,-403,-1016,-579,-329,173,397,-447
2,254007,-1887,152,-403,-1016,-579,-329,173,397,-447
2,254012,-1887,152,-403,-1016,-579,-329,173,397,-447
2,254017,-1888,152,-402,-1025,-577,-328,173,397,-447
2,254022,-1888,152,-402,-1025,-577,-328,173,397,-447
2,254028,-1888,152,-402,-1025,-577,-328,173,397,-447
2,254033,-1888,152,-402,-1025,-577,-328,173,397,-447
2,254040,-1887,155,-398,-1027,-575,-328,173,397,-447
2,254045,-1887,155,-398,-1027,-575,-328,173,397,-447
2,254051,-1887,155,-398,-1027,-575,-328,173,397,-447
2,254056,-1889,154,-404,-1022,-581,-327,173,397,-447
2,254062,-1889,154,-404,-1022,-581,-327,173,397,-447
2,254070,-1889,154,-404,-1022,-581,-327,173,397,-447
2,254075,-1890,156,-396,-1016,-577,-329,173,397,-447
2,254082,-1890,156,-396,-1016,-577,-329,173,397,-447
2,254089,-1890,156,-396,-1016,-577,-329,173,397,-447
2,254094,-1888,154,-406,-1019,-574,-326,184,390,-440
2,254099,-1888,154,-406,-1019,-574,-326,184,390,-440
2,254104,-1888,154,-406,-1019,-574,-326,184,390,-440
2,254109,-1888,154,-406,-1019,-574,-326,184,390,-440
2,254114,-1887,154,-402,-1021,-574,-328,184,390,-440
2,254119,-1887,154,-402,-1021,-574,-328,184,390,-440
2,254125,-1887,154,-402,-1021,-574,-328,184,390,-440
2,254130,-1887,154,-402,-1021,-574,-328,184,390,-440
2,254134,-1888,149,-400,-1029,-575,-329,184,390,-440
2,254139,-1888,149,-400,-1029,-575,-329,184,390,-440
2,254143,-1888,149,-400,-1029,-575,-329,184,390,-440
2,254148,-1888,149,-400,-1029,-575,-329,184,390,-440
2,254153,-1888,149,-400,-1029,-575,-329,184,390,-440
2,254158,-1889,155,-404,-1029,-576,-326,184,390,-440
2,254163,-1889,155,-404,-1029,-576,-326,184,390,-440
2,254169,-1889,155,-404,-1029,-576,-326,184,390,-440
2,254174,-1889,152,-407,-1017,-577,-324,184,390,-440
2,254180,-1889,152,-407,-1017,-577,-324,184,390,-440
2,254185,-1889,152,-407,-1017,-577,-324,184,390,-440
2,254190,-1889,152,-407,-1017,-577,-324,184,390,-440
2,254195,-1889,156,-403,-1021,-574,-328,184,390,-440
2,254201,-1889,156,-403,-1021,-574,-328,184,390,-440
2,254206,-1889,156,-403,-1021,-574,-328,184,390,-440
2,254213,-1889,156,-403,-1021,-574,-328,184,390,-440
2,254218,-1888,155,-401,-1024,-582,-325,177,389,-451
2,254223,-1888,155,-401,-1024,-582,-325,177,389,-451
2,254228,-1888,155,-401,-1024,-582,-325,177,389,-451
2,254233,-1888,155,-401,-1024,-582,-325,177,389,-451
2,254239,-1893,154,-403,-1025,-572,-328,177,389,-451
2,254244,-1893,154,-403,-1025,-572,-328,177,389,-451
2,254251,-1893,154,-403,-1025,-572,-328,177,389,-451
2,254256,-1886,152,-405,-1026,-574,-322,177,389,-451
2,254261,-1886,152,-405,-1026,-574,-322,177,389,-451
2,254267,-1886,152,-405,-1026,-574,-322,177,389,-451
2,254272,-1886,152,-405,-1026,-574,-322,177,389,-451
2,254277,-1889,154,-400,-1026,-576,-326,177,389,-451
2,254282,-1889,154,-400,-1026,-576,-326,177,389,-451
2,254288,-1889,154,-400,-1026,-576,-326,177,389,-451
2,254295,-1890,154,-398,-1027,-582,-326,177,389,-451
2,254300,-1890,154,-398,-1027,-582,-326,177,389,-451
2,254305,-1890,154,-398,-1027,-582,-326,177,389,-451
2,254310,-1890,154,-398,-1027,-582,-326,177,389,-451
2,254316,-1887,154,-402,-1021,-583,-325,177,389,-451
2,254321,-1887,154,-402,-1021,-583,-325,177,389,-451
2,254326,-1887,154,-402,-1021,-583,-325,177,389,-451
2,254332,-1887,154,-402,-1021,-583,-325,177,389,-451
2,254340,-1886,154,-411,-1025,-576,-327,177,389,-451
2,254346,-1886,154,-411,-1025,-576,-327,177,389,-451
2,254351,-1886,154,-411,-1025,-576,-327,177,389,-451
2,254356,-1888,155,-396,-1025,-578,-321,180,392,-452
2,254362,-1888,155,-396,-1025,-578,-321,180,392,-452
2,254367,-1888,155,-396,-1025,-578,-321,180,392,-452
2,254373,-1888,155,-396,-1025,-578,-321,180,392,-452
2,254380,-1887,156,-406,-1018,-572,-327,180,392,-452
2,254387,-1887,156,-406,-1018,-572,-327,180,392,-452
2,254392,-1887,156,-406,-1018,-572,-327,180,392,-452
2,254398,-1888,156,-405,-1020,-577,-330,180,392,-452
2,254403,-1888,156,-405,-1020,-577,-330,180,392,-452
2,254408,-1888,156,-405,-1020,-577,-330,180,392,-452
2,254413,-1888,156,-405,-1020,-577,-330,180,392,-452
2,254418,-1891,155,-396,-1029,-581,-332,180,392,-452
2,254425,-1891,155,-396,-1029,-581,-332,180,392,-452
2,254431,-1891,155,-396,-1029,-581,-332,180,392,-452
2,254436,-1888,154,-404,-1020,-584,-331,180,392,-452
2,254441,-1888,154,-404,-1020,-584,-331,180,392,-452
2,254446,-1888,154,-404,-1020,-584,-331,180,392,-452
2,254452,-1888,154,-404,-1020,-584,-331,180,392,-452
2,254457,-1886,154,-405,-1024,-584,-323,180,392,-452
2,254462,-1886,154,-405,-1024,-584,-323,180,392,-452
2,254468,-1886,154,-405,-1024,-584,-323,180,392,-452
2,254474,-1886,154,-405,-1024,-584,-323,180,392,-452
2,254479,-1889,156,-398,-1016,-575,-330,179,389,-445
2,254484,-1889,156,-398,-1016,-575,-330,179,389,-445
2,254490,-1889,156,-398,-1016,-575,-330,179,389,-445
2,254495,-1890,156,-399,-1023,-574,-326,179,389,-445
2,254500,-1890,156,-399,-1023,-574,-326,179,389,-445
2,254507,-1890,156,-399,-1023,-574,-326,179,389,-445
2,254512,-1890,156,-399,-1023,-574,-326,179,389,-445
2,254517,-1888,155,-403,-1030,-574,-327,179,389,-445
2,254523,-1888,155,-403,-1030,-574,-327,179,389,-445
2,254528,-1888,155,-403,-1030,-574,-327,179,389,-445
2,254533,-1888,155,-403,-1030,-574,-327,179,389,-445
2,254538,-1887,155,-404,-1019,-573,-323,179,389,-445
2,254544,-1887,155,-404,-1019,-573,-323,179,389,-445
2,254550,-1887,155,-404,-1019,-573,-323,179,389,-445
2,254555,-1887,155,-407,-1028,-580,-323,179,389,-445
2,254561,-1887,155,-407,-1028,-580,-323,179,389,-445
2,254566,-1887,155,-407,-1028,-580,-323,179,389,-445
2,254572,-1887,155,-407,-1028,-580,-323,179,389,-445
2,254577,-1888,157,-403,-1029,-579,-322,179,389,-445
2,254582,-1888,157,-403,-1029,-579,-322,179,389,-445
2,254588,-1888,157,-403,-1029,-579,-322,179,389,-445
2,254594,-1888,157,-403,-1029,-579,-322,179,389,-445
2,254600,-1889,155,-404,-1016,-580,-321,179,389,-445
2,254605,-1889,155,-404,-1016,-580,-321,179,389,-445
2,254610,-1889,155,-404,-1016,-580,-321,179,389,-445
2,254615,-1890,151,-395,-1016,-577,-321,182,384,-450
2,254621,-1890,151,-395,-1016,-577,-321,182,384,-450
2,254627,-1890,151,-395,-1016,-577,-321,182,384,-450
2,254632,-1890,151,-395,-1016,-577,-321,182,384,-450
2,254640,-1889,153,-398,-1015,-578,-325,182,384,-450
2,254645,-1889,153,-398,-1015,-578,-325,182,384,-450
2,254650,-1889,153,-398,-1015,-578,-325,182,384,-450
2,254656,-1888,154,-404,-1021,-585,-326,182,384,-450
2,254661,-1888,154,-404,-1021,-585,-326,182,384,-450
2,254666,-1888,154,-404,-1021,-585,-326,182,384,-450
2,254672,-1888,154,-404,-1021,-585,-326,182,384,-450
2,254679,-1888,151,-404,-1027,-579,-332,182,384,-450
2,254684,-1888,151,-404,-1027,-579,-332,182,384,-450
2,254690,-1888,151,-404,-1027,-579,-332,182,384,-450
2,254695,-1889,153,-405,-1025,-575,-332,182,384,-450
2,254701,-1889,153,-405,-1025,-575,-332,182,384,-450
2,254707,-1889,153,-405,-1025,-575,-332,182,384,-450
2,254712,-1889,153,-405,-1025,-575,-332,182,384,-450
2,254718,-1882,155,-403,-1016,-579,-330,182,384,-450
2,254724,-1882,155,-403,-1016,-579,-330,182,384,-450
2,254730,-1882,155,-403,-1016,-579,-330,182,384,-450
2,254735,-1885,155,-396,-1024,-573,-323,179,385,-443
2,254742,-1885,155,-396,-1024,-573,-323,179,385,-443
2,254747,-1885,155,-396,-1024,-573,-323,179,385,-443
2,254753,-1885,155,-396,-1024,-573,-323,179,385,-443
2,254758,-1887,155,-397,-1033,-572,-314,179,385,-443
2,254764,-1887,155,-397,-1033,-572,-314,179,385,-443
2,254769,-1887,155,-397,-1033,-572,-314,179,385,-443
2,254775,-1884,153,-396,-1032,-582,-323,179,385,-443
2,254780,-1884,153,-396,-1032,-582,-323,179,385,-443
2,254785,-1884,153,-396,-1032,-582,-323,179,385,-443
2,254791,-1884,153,-396,-1032,-582,-323,179,385,-443
2,254796,-1886,154,-404,-1024,-584,-326,179,385,-443
2,254801,-1886,154,-404,-1024,-584,-326,179,385,-443
2,254808,-1886,154,-404,-1024,-584,-326,179,385,-443
2,254813,-1886,154,-404,-1024,-584,-326,179,385,-443
2,254818,-1891,153,-400,-1026,-583,-332,179,385,-443
2,254824,-1891,153,-400,-1026,-583,-332,179,385,-443
2,254829,-1891,153,-400,-1026,-583,-332,179,385,-443
2,254834,-1891,153,-400,-1026,-583,-332,179,385,-443
2,254840,-1889,157,-405,-1017,-572,-328,179,385,-443
2,254846,-1889,157,-405,-1017,-572,-328,179,385,-443
2,254852,-1889,157,-405,-1017,-572,-328,179,385,-443
2,254857,-1890,157,-404,-1021,-579,-325,181,383,-445
2,254863,-1890,157,-404,-1021,-579,-325,181,383,-445
2,254868,-1890,157,-404,-1021,-579,-325,181,383,-445
2,254874,-1890,157,-404,-1021,-579,-325,181,383,-445
2,254878,-1887,155,-402,-1024,-574,-319,181,383,-445
2,254884,-1887,155,-402,-1024,-574,-319,181,383,-445
2,254889,-1887,155,-402,-1024,-574,-319,181,383,-445
2,254896,-1887,155,-402,-1024,-574,-319,181,383,-445
2,254901,-1887,155,-402,-1024,-574,-319,181,383,-445
2,254906,-1887,155,-402,-1024,-574,-319,181,383,-445
2,254912,-1887,155,-402,-1024,-574,-319,181,383,-445
2,254917,-1886,155,-406,-1020,-570,-323,181,383,-445
2,254922,-1886,155,-406,-1020,-570,-323,181,383,-445
2,254927,-1886,155,-406,-1020,-570,-323,181,383,-445
2,254932,-1886,155,-406,-1020,-570,-323,181,383,-445
2,254938,-1891,153,-402,-1022,-576,-321,181,383,-445
2,254943,-1891,153,-402,-1022,-576,-321,181,383,-445
2,254948,-1891,153,-402,-1022,-576,-321,181,383,-445
2,254953,-1891,153,-402,-1022,-576,-321,181,383,-445
2,254958,-1889,153,-403,-1024,-578,-328,181,383,-445
2,254964,-1889,153,-403,-1024,-578,-328,181,383,-445
2,254969,-1889,153,-403,-1024,-578,-328,181,383,-445
2,254974,-1889,153,-403,-1024,-578,-328,181,383,-445
2,254981,-1890,154,-403,-1025,-577,-328,181,383,-445
2,254987,-1890,154,-403,-1025,-577,-328,181,383,-445
2,254992,-1890,154,-403,-1025,-577,-328,181,383,-445
2,254997,-1888,156,-398,-1020,-575,-331,180,386,-450
2,255002,-1888,156,-398,-1020,-575,-331,180,386,-450
2,255008,-1888,156,-398,-1020,-575,-331,180,386,-450
2,255013,-1888,156,-398,-1020,-575,-331,180,386,-450
2,255019,-1888,154,-404,-1024,-577,-323,180,386,-450
2,255024,-1888,154,-404,-1024,-577,-323,180,386,-450
2,255029,-1888,154,-404,-1024,-577,-323,180,386,-450
2,255035,-1888,154,-404,-1024,-577,-323,180,386,-450
2,255040,-1887,155,-401,-1024,-578,-329,180,386,-450
2,255046,-1887,155,-401,-1024,-578,-329,180,386,-450
2,255051,-1887,155,-401,-1024,-578,-329,180,386,-450
2,255057,-1887,154,-404,-1023,-577,-327,180,386,-450
2,255064,-1887,154,-404,-1023,-577,-327,180,386,-450
2,255069,-1887,154,-404,-1023,-577,-327,180,386,-450
2,255074,-1887,154,-404,-1023,-577,-327,180,386,-450
2,255080,-1888,155,-400,-1026,-578,-328,180,386,-450
2,255085,-1888,155,-400,-1026,-578,-328,180,386,-450
2,255090,-1888,155,-400,-1026,-578,-328,180,386,-450
2,255096,-1887,156,-403,-1023,-583,-328,180,386,-450
2,255101,-1887,156,-403,-1023,-583,-328,180,386,-450
2,255107,-1887,156,-403,-1023,-583,-328,180,386,-450
2,255112,-1887,156,-403,-1023,-583,-328,180,386,-450
2,255117,-1886,156,-406,-1025,-584,-324,190,390,-436
2,255123,-1886,156,-406,-1025,-584,-324,190,390,-436
2,255127,-1886,156,-406,-1025,-584,-324,190,390,-436
2,255133,-1886,156,-406,-1025,-584,-324,190,390,-436
2,255138,-1891,154,-399,-1030,-583,-321,190,390,-436
2,255143,-1891,154,-399,-1030,-583,-321,190,390,-436
2,255150,-1891,154,-399,-1030,-583,-321,190,390,-436
2,255156,-1887,159,-400,-1022,-579,-331,190,390,-436
2,255161,-1887,159,-400,-1022,-579,-331,190,390,-436
2,255166,-1887,159,-400,-1022,-579,-331,190,390,-436
2,255171,-1887,159,-400,-1022,-579,-331,190,390,-436
2,255177,-1887,155,-399,-1025,-580,-328,190,390,-436
2,255182,-1887,155,-399,-1025,-580,-328,190,390,-436
2,255188,-1887,155,-399,-1025,-580,-328,190,390,-436
2,255195,-1887,155,-399,-1025,-580,-328,190,390,-436
2,255200,-1885,152,-404,-1022,-582,-324,190,390,-436
2,255205,-1885,152,-404,-1022,-582,-324,190,390,-436
2,255210,-1885,152,-404,-1022,-582,-324,190,390,-436
2,255215,-1888,154,-408,-1018,-584,-326,190,390,-436
2,255221,-1888,154,-408,-1018,-584,-326,190,390,-436
2,255226,-1888,154,-408,-1018,-584,-326,190,390,-436
2,255232,-1888,154,-408,-1018,-584,-326,190,390,-436
2,255238,-1889,154,-408,-1022,-580,-329,190,390,-436
2,255243,-1889,154,-408,-1022,-580,-329,190,390,-436
2,255248,-1889,154,-408,-1022,-580,-329,190,390,-436
2,255254,-1889,154,-408,-1022,-580,-329,190,390,-436
2,255259,-1889,155,-396,-1026,-584,-324,178,390,-442
2,255265,-1889,155,-396,-1026,-584,-324,178,390,-442
2,255270,-1889,155,-396,-1026,-584,-324,178,390,-442
2,255276,-1889,155,-396,-1026,-584,-324,178,390,-442
2,255281,-1886,154,-398,-1027,-589,-329,178,390,-442
2,255286,-1886,154,-398,-1027,-589,-329,178,390,-442
2,255292,-1886,154,-398,-1027,-589,-329,178,390,-442
2,255297,-1886,151,-402,-1023,-580,-325,178,390,-442
2,255303,-1886,151,-402,-1023,-580,-325,178,390,-442
2,255308,-1886,151,-402,-1023,-580,-325,178,390,-442
2,255313,-1886,151,-402,-1023,-580,-325,178,390,-442
2,255320,-1888,155,-398,-1017,-578,-324,178,390,-442
2,255325,-1888,155,-398,-1017,-578,-324,178,390,-442
2,255330,-1888,155,-398,-1017,-578,-324,178,390,-442
2,255335,-1888,155,-398,-1017,-578,-324,178,390,-442
2,255341,-1889,155,-402,-1023,-576,-325,178,390,-442
2,255346,-1889,155,-402,-1023,-576,-325,178,390,-442
2,255352,-1889,155,-402,-1023,-576,-325,178,390,-442
2,255357,-1890,155,-400,-1024,-581,-323,178,390,-442
2,255364,-1890,155,-400,-1024,-581,-323,178,390,-442
2,255369,-1890,155,-400,-1024,-581,-323,178,390,-442
2,255374,-1890,155,-400,-1024,-581,-323,178,390,-442
2,255380,-1887,153,-399,-1026,-577,-328,184,390,-456
2,255385,-1887,153,-399,-1026,-577,-328,184,390,-456
2,255391,-1887,153,-399,-1026,-577,-328,184,390,-456
2,255396,-1885,155,-396,-1028,-577,-332,184,390,-456
2,255401,-1885,155,-396,-1028,-577,-332,184,390,-456
2,255408,-1885,155,-396,-1028,-577,-332,184,390,-456
2,255413,-1885,155,-396,-1028,-577,-332,184,390,-456
2,255419,-1889,157,-400,-1020,-574,-323,184,390,-456
2,255424,-1889,157,-400,-1020,-574,-323,184,390,-456
2,255430,-1889,157,-400,-1020,-574,-323,184,390,-456
2,255435,-1885,154,-399,-1025,-580,-323,184,390,-456
2,255440,-1885,154,-399,-1025,-580,-323,184,390,-456
2,255447,-1885,154,-399,-1025,-580,-323,184,390,-456
2,255452,-1885,154,-399,-1025,-580,-323,184,390,-456
2,255458,-1886,155,-403,-1021,-574,-326,184,390,-456
2,255463,-1886,155,-403,-1021,-574,-326,184,390,-456
2,255469,-1886,155,-403,-1021,-574,-326,184,390,-456
2,255474,-1886,155,-403,-1021,-574,-326,184,390,-456
2,255479,-1891,153,-403,-1014,-566,-315,184,390,-456
2,255485,-1891,153,-403,-1014,-566,-315,184,390,-456
2,255491,-1891,153,-403,-1014,-566,-315,184,390,-456
2,255496,-1887,156,-409,-1022,-582,-324,184,390,-456
2,255502,-1887,156,-409,-1022,-582,-324,184,390,-456
2,255507,-1887,156,-409,-1022,-582,-324,184,390,-456
2,255512,-1887,156,-409,-1022,-582,-324,184,390,-456
2,255518,-1888,153,-401,-1026,-578,-323,184,390,-456
2,255523,-1888,153,-401,-1026,-578,-323,184,390,-456
2,255528,-1888,153,-401,-1026,-578,-323,184,390,-456
2,255535,-1888,153,-401,-1026,-578,-323,184,390,-456
2,255540,-1887,155,-401,-1023,-582,-320,184,390,-456
2,255545,-1887,155,-401,-1023,-582,-320,184,390,-456
2,255551,-1887,155,-401,-1023,-582,-320,184,390,-456
2,255556,-1889,155,-403,-1032,-579,-328,184,390,-456
2,255561,-1889,155,-403,-1032,-579,-328,184,390,-456
2,255566,-1889,155,-403,-1032,-579,-328,184,390,-456
2,255571,-1889,155,-403,-1032,-579,-328,184,390,-456
2,255578,-1888,154,-405,-1032,-585,-322,184,390,-456
2,255584,-1888,154,-405,-1032,-585,-322,184,390,-456
2,255589,-1888,154,-405,-1032,-585,-322,184,390,-456
2,255594,-1888,154,-405,-1032,-585,-322,184,390,-456
2,255599,-1889,154,-400,-1036,-581,-324,184,390,-456
2,255604,-1889,154,-400,-1036,-581,-324,184,390,-456
2,255610,-1889,154,-400,-1036,-581,-324,184,390,-456
2,255616,-1889,154,-400,-1036,-581,-324,184,390,-456
2,255621,-1887,155,-397,-1019,-574,-320,184,390,-456
2,255626,-1887,155,-397,-1019,-574,-320,184,390,-456
2,255631,-1887,155,-397,-1019,-574,-320,184,390,-456
2,255636,-1889,155,-402,-1024,-572,-322,183,383,-447
2,255642,-1889,155,-402,-1024,-572,-322,183,383,-447
2,255647,-1889,155,-402,-1024,-572,-322,183,383,-447
2,255653,-1889,155,-402,-1024,-572,-322,183,383,-447
2,255659,-1887,155,-399,-1026,-577,-332,183,383,-447
2,255664,-1887,155,-399,-1026,-577,-332,183,383,-447
2,255670,-1887,155,-399,-1026,-577,-332,183,383,-447
2,255675,-1887,155,-399,-1026,-577,-332,183,383,-447
2,255680,-1885,154,-401,-1019,-573,-320,183,383,-447
2,255686,-1885,154,-401,-1019,-573,-320,183,383,-447
2,255691,-1885,154,-401,-1019,-573,-320,183,383,-447
2,255697,-1886,155,-407,-1022,-574,-322,183,383,-447
2,255703,-1886,155,-407,-1022,-574,-322,183,383,-447
2,255709,-1886,155,-407,-1022,-574,-322,183,383,-447
2,255714,-1886,155,-407,-1022,-574,-322,183,383,-447
2,255719,-1890,156,-407,-1021,-581,-321,183,383,-447
2,255725,-1890,156,-407,-1021,-581,-321,183,383,-447
2,255730,-1890,156,-407,-1021,-581,-321,183,383,-447
2,255735,-1890,156,-407,-1021,-581,-321,183,383,-447
2,255741,-1887,153,-406,-1019,-576,-317,183,383,-447
2,255747,-1887,153,-406,-1019,-576,-317,183,383,-447
2,255752,-1887,153,-406,-1019,-576,-317,183,383,-447
2,255758,-1886,156,-403,-1027,-583,-320,175,389,-443
2,255763,-1886,156,-403,-1027,-583,-320,175,389,-443
2,255769,-1886,156,-403,-1027,-583,-320,175,389,-443
2,255774,-1886,156,-403,-1027,-583,-320,175,389,-443
2,255779,-1884,155,-400,-1027,-581,-329,175,389,-443
2,255785,-1884,155,-400,-1027,-581,-329,175,389,-443
2,255793,-1884,155,-400,-1027,-581,-329,175,389,-443
2,255798,-1887,154,-403,-1034,-579,-327,175,389,-443
2,255803,-1887,154,-403,-1034,-579,-327,175,389,-443
2,255809,-1887,154,-403,-1034,-579,-327,175,389,-443
2,255814,-1887,154,-403,-1034,-579,-327,175,389,-443
2,255820,-1886,155,-401,-1031,-579,-331,175,389,-443
2,255825,-1886,155,-401,-1031,-579,-331,175,389,-443
2,255832,-1886,155,-401,-1031,-579,-331,175,389,-443
2,255838,-1886,156,-406,-1019,-576,-328,175,389,-443
2,255843,-1886,156,-406,-1019,-576,-328,175,389,-443
2,255849,-1886,156,-406,-1019,-576,-328,175,389,-443
2,255854,-1886,156,-406,-1019,-576,-328,175,389,-443
2,255860,-1888,152,-405,-1017,-579,-328,175,389,-443
2,255864,-1888,152,-405,-1017,-579,-328,175,389,-443
2,255870,-1888,152,-405,-1017,-579,-328,175,389,-443
2,255877,-1889,153,-403,-1018,-580,-328,175,389,-443
2,255882,-1889,153,-403,-1018,-580,-328,175,389,-443
2,255887,-1889,153,-403,-1018,-580,-328,175,389,-443
2,255893,-1889,153,-403,-1018,-580,-328,175,389,-443
2,255898,-1888,154,-398,-1017,-584,-322,187,383,-453
2,255904,-1888,154,-398,-1017,-584,-322,187,383,-453
2,255908,-1888,154,-398,-1017,-584,-322,187,383,-453
2,255915,-1888,154,-398,-1017,-584,-322,187,383,-453
2,255921,-1887,155,-401,-1021,-585,-318,187,383,-453
2,255926,-1887,155,-401,-1021,-585,-318,187,383,-453
2,255931,-1887,155,-401,-1021,-585,-318,187,383,-453
2,255937,-1888,155,-402,-1021,-583,-318,187,383,-453
2,255942,-1888,155,-402,-1021,-583,-318,187,383,-453
2,255948,-1888,155,-402,-1021,-583,-318,187,383,-453
2,255953,-1888,155,-402,-1021,-583,-318,187,383,-453
2,255959,-1887,153,-397,-1022,-578,-325,187,383,-453
2,255965,-1887,153,-397,-1022,-578,-325,187,383,-453
2,255970,-1887,153,-397,-1022,-578,-325,187,383,-453
2,255976,-1887,153,-397,-1022,-578,-325,187,383,-453
2,255981,-1888,156,-405,-1022,-576,-320,187,383,-453
2,255986,-1888,156,-405,-1022,-576,-320,187,383,-453
2,255991,-1888,156,-405,-1022,-576,-320,187,383,-453
2,255996,-1887,155,-402,-1022,-574,-322,187,383,-453
2,256003,-1887,155,-402,-1022,-574,-322,187,383,-453
2,256009,-1887,155,-402,-1022,-574,-322,187,383,-453
2,256014,-1887,155,-402,-1022,-574,-322,187,383,-453
2,256020,-1888,153,-392,-1019,-582,-321,176,390,-444
2,256026,-1888,153,-392,-1019,-582,-321,176,390,-444
2,256031,-1888,153,-392,-1019,-582,-321,176,390,-444
2,256036,-1888,154,-399,-1031,-575,-333,176,390,-444
2,256043,-1888,154,-399,-1031,-575,-333,176,390,-444
2,256048,-1888,154,-399,-1031,-575,-333,176,390,-444
2,256053,-1888,154,-399,-1031,-575,-333,176,390,-444
2,256059,-1888,154,-399,-1031,-575,-333,176,390,-444
2,256064,-1888,154,-399,-1031,-575,-333,176,390,-444
2,256070,-1888,154,-399,-1031,-575,-333,176,390,-444
2,256075,-1888,154,-399,-1031,-575,-333,176,390,-444
2,256081,-1890,154,-406,-1016,-570,-331,176,390,-444
2,256088,-1890,154,-406,-1016,-570,-331,176,390,-444
2,256094,-1890,154,-406,-1016,-570,-331,176,390,-444
2,256099,-1889,155,-402,-1018,-574,-335,176,390,-444
2,256105,-1889,155,-402,-1018,-574,-335,176,390,-444
2,256110,-1889,155,-402,-1018,-574,-335,176,390,-444
2,256115,-1889,155,-402,-1018,-574,-335,176,390,-444
2,256121,-1889,155,-405,-1019,-577,-326,176,390,-444
2,256126,-1889,155,-405,-1019,-577,-326,176,390,-444
2,256133,-1889,155,-405,-1019,-577,-326,176,390,-444
2,256138,-1891,155,-400,-1016,-580,-318,176,390,-444
2,256144,-1891,155,-400,-1016,-580,-318,176,390,-444
2,256149,-1891,155,-400,-1016,-580,-318,176,390,-444
2,256154,-1891,155,-400,-1016,-580,-318,176,390,-444
2,256160,-1887,155,-403,-1019,-573,-322,178,386,-446
2,256165,-1887,155,-403,-1019,-573,-322,178,386,-446
2,256171,-1887,155,-403,-1019,-573,-322,178,386,-446
2,256177,-1887,155,-403,-1019,-573,-322,178,386,-446
2,256183,-1888,156,-403,-1025,-574,-318,178,386,-446
2,256188,-1888,156,-403,-1025,-574,-318,178,386,-446
2,256194,-1888,156,-403,-1025,-574,-318,178,386,-446
2,256199,-1885,153,-399,-1025,-576,-330,178,386,-446
2,256204,-1885,153,-399,-1025,-576,-330,178,386,-446
2,256209,-1885,153,-399,-1025,-576,-330,178,386,-446
2,256216,-1885,153,-399,-1025,-576,-330,178,386,-446
2,256221,-1888,154,-401,-1020,-577,-326,178,386,-446
2,256227,-1888,154,-401,-1020,-577,-326,178,386,-446
2,256232,-1888,154,-401,-1020,-577,-326,178,386,-446
2,256237,-1889,155,-398,-1014,-576,-320,178,386,-446
2,256242,-1889,155,-398,-1014,-576,-320,178,386,-446
2,256248,-1889,155,-398,-1014,-576,-320,178,386,-446
2,256253,-1889,155,-398,-1014,-576,-320,178,386,-446
2,256259,-1886,152,-398,-1022,-579,-326,178,386,-446
2,256264,-1886,152,-398,-1022,-579,-326,178,386,-446
2,256270,-1886,152,-398,-1022,-579,-326,178,386,-446
2,256275,-1886,152,-398,-1022,-579,-326,178,386,-446
2,256281,-1888,154,-401,-1022,-574,-325,181,381,-447
2,256286,-1888,154,-401,-1022,-574,-325,181,381,-447
2,256292,-1888,154,-401,-1022,-574,-325,181,381,-447
2,256297,-1888,157,-395,-1027,-577,-325,181,381,-447
2,256303,-1888,157,-395,-1027,-577,-325,181,381,-447
2,256308,-1888,157,-395,-1027,-577,-325,181,381,-447
2,256313,-1888,157,-395,-1027,-577,-325,181,381,-447
2,256318,-1888,156,-400,-1026,-583,-320,181,381,-447
2,256324,-1888,156,-400,-1026,-583,-320,181,381,-447
2,256329,-1888,156,-400,-1026,-583,-320,181,381,-447
2,256335,-1888,156,-400,-1026,-583,-320,181,381,-447
2,256340,-1890,155,-402,-1027,-576,-322,181,381,-447
2,256346,-1890,155,-402,-1027,-576,-322,181,381,-447
2,256352,-1890,155,-402,-1027,-576,-322,181,381,-447
2,256357,-1888,153,-403,-1024,-579,-330,181,381,-447
2,256362,-1888,153,-403,-1024,-579,-330,181,381,-447
2,256368,-1888,153,-403,-1024,-579,-330,181,381,-447
2,256373,-1888,153,-403,-1024,-579,-330,181,381,-447
2,256378,-1887,156,-402,-1030,-583,-328,181,381,-447
2,256384,-1887,156,-402,-1030,-583,-328,181,381,-447
2,256390,-1887,156,-402,-1030,-583,-328,181,381,-447
2,256396,-1887,156,-402,-1030,-583,-328,181,381,-447
2,256401,-1889,155,-403,-1034,-573,-328,182,388,-454
2,256406,-1889,155,-403,-1034,-573,-328,182,388,-454
2,256411,-1889,155,-403,-1034,-573,-328,182,388,-454
2,256417,-1888,154,-402,-1030,-579,-324,182,388,-454
2,256422,-1888,154,-402,-1030,-579,-324,182,388,-454
2,256428,-1888,154,-402,-1030,-579,-324,182,388,-454
2,256434,-1888,154,-402,-1030,-579,-324,182,388,-454
2,256439,-1888,154,-403,-1022,-576,-323,182,388,-454
2,256445,-1888,154,-403,-1022,-576,-323,182,388,-454
2,256450,-1888,154,-403,-1022,-576,-323,182,388,-454
2,256455,-1888,154,-403,-1022,-576,-323,182,388,-454
2,256460,-1885,153,-404,-1022,-573,-321,182,388,-454
2,256465,-1885,153,-404,-1022,-573,-321,182,388,-454
2,256472,-1885,153,-404,-1022,-573,-321,182,388,-454
2,256477,-1885,153,-404,-1022,-573,-321,182,388,-454
2,256483,-1886,154,-405,-1025,-579,-320,182,388,-454
2,256488,-1886,154,-405,-1025,-579,-320,182,388,-454
2,256494,-1886,154,-405,-1025,-579,-320,182,388,-454
2,256499,-1883,155,-406,-1026,-582,-328,182,388,-454
2,256504,-1883,155,-406,-1026,-582,-328,182,388,-454
2,256509,-1883,155,-406,-1026,-582,-328,182,388,-454
2,256515,-1883,155,-406,-1026,-582,-328,182,388,-454
2,256521,-1886,154,-400,-1027,-576,-324,182,388,-454
2,256526,-1886,154,-400,-1027,-576,-324,182,388,-454
2,256531,-1886,154,-400,-1027,-576,-324,182,388,-454
2,256536,-1886,154,-400,-1027,-576,-324,182,388,-454
2,256542,-1887,152,-405,-1027,-580,-329,183,389,-449
2,256546,-1887,152,-405,-1027,-580,-329,183,389,-449
2,256551,-1887,152,-405,-1027,-580,-329,183,389,-449
2,256558,-1886,156,-403,-1025,-587,-327,183,389,-449
2,256563,-1886,156,-403,-1025,-587,-327,183,389,-449
2,256569,-1886,156,-403,-1025,-587,-327,183,389,-449
2,256574,-1886,156,-403,-1025,-587,-327,183,389,-449
2,256580,-1886,155,-400,-1021,-584,-321,183,389,-449
2,256584,-1886,155,-400,-1021,-584,-321,183,389,-449
2,256590,-1886,155,-400,-1021,-584,-321,183,389,-449
2,256595,-1886,155,-400,-1021,-584,-321,183,389,-449
2,256601,-1888,154,-401,-1016,-573,-320,183,389,-449
2,256606,-1888,154,-401,-1016,-573,-320,183,389,-449
2,256612,-1888,154,-401,-1016,-573,-320,183,389,-449
2,256617,-1888,156,-405,-1023,-579,-328,183,389,-449
2,256623,-1888,156,-405,-1023,-579,-328,183,389,-449
2,256628,-1888,156,-405,-1023,-579,-328,183,389,-449
2,256634,-1888,156,-405,-1023,-579,-328,183,389,-449
2,256640,-1887,154,-404,-1020,-577,-326,183,389,-449
2,256646,-1887,154,-404,-1020,-577,-326,183,389,-449
2,256650,-1887,154,-404,-1020,-577,-326,183,389,-449
2,256656,-1887,154,-404,-1020,-577,-326,183,389,-449
2,256661,-1887,156,-401,-1024,-574,-325,178,396,-454
2,256667,-1887,156,-401,-1024,-574,-325,178,396,-454
2,256672,-1887,156,-401,-1024,-574,-325,178,396,-454
2,256678,-1888,157,-398,-1022,-575,-321,178,396,-454
2,256684,-1888,157,-398,-1022,-575,-321,178,396,-454
2,256689,-1888,157,-398,-1022,-575,-321,178,396,-454
2,256694,-1888,157,-398,-1022,-575,-321,178,396,-454
2,256700,-1887,154,-398,-1020,-583,-322,178,396,-454
2,256705,-1887,154,-398,-1020,-583,-322,178,396,-454
2,256711,-1887,154,-398,-1020,-583,-322,178,396,-454
2,256716,-1887,154,-398,-1020,-583,-322,178,396,-454
2,256722,-1886,155,-398,-1012,-579,-320,178,396,-454
2,256728,-1886,155,-398,-1012,-579,-320,178,396,-454
2,256733,-1886,155,-398,-1012,-579,-320,178,396,-454
2,256739,-1890,155,-400,-1014,-580,-325,178,396,-454
2,256744,-1890,155,-400,-1014,-580,-325,178,396,-454
2,256749,-1890,155,-400,-1014,-580,-325,178,396,-454
2,256755,-1890,155,-400,-1014,-580,-325,178,396,-454
2,256760,-1886,154,-403,-1016,-579,-327,178,396,-454
2,256765,-1886,154,-403,-1016,-579,-327,178,396,-454
2,256771,-1886,154,-403,-1016,-579,-327,178,396,-454
2,256777,-1886,154,-403,-1016,-579,-327,178,396,-454
2,256782,-1888,151,-405,-1026,-571,-329,178,396,-454
2,256787,-1888,151,-405,-1026,-571,-329,178,396,-454
2,256794,-1888,151,-405,-1026,-571,-329,178,396,-454
2,256801,-1887,155,-399,-1029,-576,-328,180,386,-452
2,256806,-1887,155,-399,-1029,-576,-328,180,386,-452
2,256813,-1887,155,-399,-1029,-576,-328,180,386,-452
2,256818,-1885,154,-399,-1024,-572,-334,180,386,-452
2,256823,-1885,154,-399,-1024,-572,-334,180,386,-452
2,256829,-1885,154,-399,-1024,-572,-334,180,386,-452
2,256834,-1885,154,-399,-1024,-572,-334,180,386,-452
2,256840,-1888,154,-402,-1025,-575,-320,180,386,-452
2,256845,-1888,154,-402,-1025,-575,-320,180,386,-452
2,256850,-1888,154,-402,-1025,-575,-320,180,386,-452
2,256856,-1888,154,-402,-1025,-575,-320,180,386,-452
2,256862,-1888,156,-396,-1023,-578,-319,180,386,-452
2,256867,-1888,156,-396,-1023,-578,-319,180,386,-452
2,256873,-1888,156,-396,-1023,-578,-319,180,386,-452
2,256878,-1890,154,-403,-1021,-580,-324,180,386,-452
2,256884,-1890,154,-403,-1021,-580,-324,180,386,-452
2,256889,-1890,154,-403,-1021,-580,-324,180,386,-452
2,256894,-1890,154,-403,-1021,-580,-324,180,386,-452
2,256901,-1887,154,-404,-1028,-577,-322,180,386,-452
2,256906,-1887,154,-404,-1028,-577,-322,180,386,-452
2,256912,-1887,154,-404,-1028,-577,-322,180,386,-452
2,256917,-1887,154,-404,-1028,-577,-322,180,386,-452
2,256923,-1892,154,-397,-1019,-576,-320,182,384,-450
2,256928,-1892,154,-397,-1019,-576,-320,182,384,-450
2,256934,-1892,154,-397,-1019,-576,-320,182,384,-450
2,256940,-1888,155,-406,-1021,-579,-324,182,384,-450
2,256945,-1888,155,-406,-1021,-579,-324,182,384,-450
2,256950,-1888,155,-406,-1021,-579,-324,182,384,-450
2,256955,-1888,155,-406,-1021,-579,-324,182,384,-450
2,256960,-1889,154,-395,-1018,-575,-326,182,384,-450
2,256966,-1889,154,-395,-1018,-575,-326,182,384,-450
2,256971,-1889,154,-395,-1018,-575,-326,182,384,-450
2,256976,-1889,154,-395,-1018,-575,-326,182,384,-450
2,256982,-1887,156,-402,-1025,-581,-328,182,384,-450
2,256988,-1887,156,-402,-1025,-581,-328,182,384,-450
2,256993,-1887,156,-402,-1025,-581,-328,182,384,-450
2,256999,-1888,154,-404,-1021,-581,-329,182,384,-450
2,257004,-1888,154,-404,-1021,-581,-329,182,384,-450
2,257010,-1888,154,-404,-1021,-581,-329,182,384,-450
2,257015,-1888,154,-404,-1021,-581,-329,182,384,-450
2,257020,-1890,153,-402,-1022,-580,-316,182,384,-450
2,257027,-1890,153,-402,-1022,-580,-316,182,384,-450
2,257032,-1890,153,-402,-1022,-580,-316,182,384,-450
2,257037,-1890,153,-402,-1022,-580,-316,182,384,-450
2,257043,-1889,155,-403,-1025,-576,-327,177,389,-445
2,257048,-1889,155,-403,-1025,-576,-327,177,389,-445
2,257053,-1889,155,-403,-1025,-576,-327,177,389,-445
2,257059,-1888,155,-403,-1031,-573,-329,177,389,-445
2,257064,-1888,155,-403,-1031,-573,-329,177,389,-445
2,257070,-1888,155,-403,-1031,-573,-329,177,389,-445
2,257076,-1888,155,-403,-1031,-573,-329,177,389,-445
2,257081,-1889,154,-401,-1033,-569,-326,177,389,-445
2,257087,-1889,154,-401,-1033,-569,-326,177,389,-445
2,257092,-1889,154,-401,-1033,-569,-326,177,389,-445
2,257097,-1889,154,-401,-1033,-569,-326,177,389,-445
2,257103,-1889,154,-403,-1024,-570,-325,177,389,-445
2,257108,-1889,154,-403,-1024,-570,-325,177,389,-445
2,257114,-1889,154,-403,-1024,-570,-325,177,389,-445
2,257120,-1887,159,-402,-1017,-573,-322,177,389,-445
2,257126,-1887,159,-402,-1017,-573,-322,177,389,-445
2,257131,-1887,159,-402,-1017,-573,-322,177,389,-445
2,257136,-1887,159,-402,-1017,-573,-322,177,389,-445
2,257141,-1889,154,-405,-1028,-577,-325,177,389,-445
2,257147,-1889,154,-405,-1028,-577,-325,177,389,-445
2,257154,-1889,154,-405,-1028,-577,-325,177,389,-445
2,257159,-1886,155,-403,-1019,-578,-330,177,389,-445
2,257164,-1886,155,-403,-1019,-578,-330,177,389,-445
2,257169,-1886,155,-403,-1019,-578,-330,177,389,-445
2,257174,-1886,155,-403,-1019,-578,-330,177,389,-445
2,257179,-1892,158,-401,-1028,-582,-331,184,380,-444
2,257185,-1892,158,-401,-1028,-582,-331,184,380,-444
2,257190,-1892,158,-401,-1028,-582,-331,184,380,-444
2,257196,-1892,158,-401,-1028,-582,-331,184,380,-444
2,257201,-1885,154,-393,-1025,-582,-328,184,380,-444
2,257207,-1885,154,-393,-1025,-582,-328,184,380,-444
2,257212,-1885,154,-393,-1025,-582,-328,184,380,-444
2,257217,-1885,154,-393,-1025,-582,-328,184,380,-444
2,257223,-1885,155,-399,-1025,-576,-328,184,380,-444
2,257227,-1885,155,-399,-1025,-576,-328,184,380,-444
2,257233,-1885,155,-399,-1025,-576,-328,184,380,-444
2,257239,-1885,156,-396,-1029,-580,-322,184,380,-444
2,257244,-1885,156,-396,-1029,-580,-322,184,380,-444
2,257249,-1885,156,-396,-1029,-580,-322,184,380,-444
2,257255,-1885,156,-396,-1029,-580,-322,184,380,-444
2,257260,-1888,154,-399,-1029,-587,-326,184,380,-444
2,257266,-1888,154,-399,-1029,-587,-326,184,380,-444
2,257271,-1888,154,-399,-1029,-587,-326,184,380,-444
2,257276,-1888,154,-399,-1029,-587,-326,184,380,-444
2,257282,-1888,155,-409,-1019,-580,-320,184,380,-444
2,257288,-1888,155,-409,-1019,-580,-320,184,380,-444
2,257293,-1888,155,-409,-1019,-580,-320,184,380,-444
2,257298,-1885,154,-399,-1025,-576,-325,184,380,-444
2,257304,-1885,154,-399,-1025,-576,-325,178,384,-442
2,257309,-1885,154,-399,-1025,-576,-325,178,384,-442
2,257314,-1885,154,-399,-1025,-576,-325,178,384,-442
2,257319,-1888,157,-404,-1028,-577,-332,178,384,-442
2,257326,-1888,157,-404,-1028,-577,-332,178,384,-442
2,257331,-1888,157,-404,-1028,-577,-332,178,384,-442
2,257337,-1888,157,-404,-1028,-577,-332,178,384,-442
2,257342,-1889,154,-395,-1021,-581,-324,178,384,-442
2,257348,-1889,154,-395,-1021,-581,-324,178,384,-442
2,257353,-1889,154,-395,-1021,-581,-324,178,384,-442
2,257358,-1889,157,-403,-1030,-581,-327,178,384,-442
2,257364,-1889,157,-403,-1030,-581,-327,178,384,-442
2,257370,-1889,157,-403,-1030,-581,-327,178,384,-442
2,257376,-1889,157,-403,-1030,-581,-327,178,384,-442
2,257381,-1890,153,-400,-1019,-576,-326,178,384,-442
2,257386,-1890,153,-400,-1019,-576,-326,178,384,-442
2,257391,-1890,153,-400,-1019,-576,-326,178,384,-442
2,257397,-1890,153,-400,-1019,-576,-326,178,384,-442
2,257402,-1887,151,-401,-1017,-576,-328,178,384,-442
2,257408,-1887,151,-401,-1017,-576,-328,178,384,-442
2,257414,-1887,151,-401,-1017,-576,-328,178,384,-442
2,257419,-1887,156,-405,-1019,-576,-328,178,384,-442
2,257425,-1887,156,-405,-1019,-576,-328,178,384,-442
2,257430,-1887,156,-405,-1019,-576,-328,178,384,-442
2,257435,-1887,156,-405,-1019,-576,-328,178,384,-442
2,257441,-1892,152,-398,-1026,-578,-328,184,388,-448
2,257446,-1892,152,-398,-1026,-578,-328,184,388,-448
2,257452,-1892,152,-398,-1026,-578,-328,184,388,-448
2,257458,-1892,152,-398,-1026,-578,-328,184,388,-448
2,257464,-1890,154,-404,-1030,-581,-329,184,388,-448
2,257469,-1890,154,-404,-1030,-581,-329,184,388,-448
2,257474,-1890,154,-404,-1030,-581,-329,184,388,-448
2,257479,-1888,155,-402,-1025,-582,-329,184,388,-448
2,257485,-1888,155,-402,-1025,-582,-329,184,388,-448
2,257490,-1888,155,-402,-1025,-582,-329,184,388,-448
2,257496,-1888,155,-402,-1025,-582,-329,184,388,-448
2,257502,-1887,154,-398,-1024,-577,-329,184,388,-448
2,257507,-1887,154,-398,-1024,-577,-329,184,388,-448
2,257513,-1887,154,-398,-1024,-577,-329,184,388,-448
2,257518,-1885,155,-402,-1021,-586,-331,184,388,-448
2,257523,-1885,155,-402,-1021,-586,-331,184,388,-448
2,257529,-1885,155,-402,-1021,-586,-331,184,388,-448
2,257534,-1885,155,-402,-1021,-586,-331,184,388,-448
2,257540,-1889,152,-399,-1024,-581,-326,184,388,-448
2,257546,-1889,152,-399,-1024,-581,-326,184,388,-448
2,257552,-1889,152,-399,-1024,-581,-326,184,388,-448
2,257557,-1889,152,-399,-1024,-581,-326,184,388,-448
2,257563,-1884,155,-401,-1025,-579,-326,175,381,-453
2,257567,-1884,155,-401,-1025,-579,-326,175,381,-453
2,257573,-1884,155,-401,-1025,-579,-326,175,381,-453
2,257579,-1892,156,-398,-1023,-584,-323,175,381,-453
2,257584,-1892,156,-398,-1023,-584,-323,175,381,-453
2,257589,-1892,156,-398,-1023,-584,-323,175,381,-453
2,257594,-1892,156,-398,-1023,-584,-323,175,381,-453
2,257599,-1892,156,-398,-1023,-584,-323,175,381,-453
2,257605,-1892,156,-398,-1023,-584,-323,175,381,-453
2,257610,-1892,156,-398,-1023,-584,-323,175,381,-453
2,257615,-1892,156,-398,-1023,-584,-323,175,381,-453
2,257620,-1890,155,-407,-1024,-565,-320,175,381,-453
2,257627,-1890,155,-407,-1024,-565,-320,175,381,-453
2,257632,-1890,155,-407,-1024,-565,-320,175,381,-453
2,257638,-1890,155,-407,-1024,-565,-320,175,381,-453
2,257643,-1889,153,-400,-1026,-582,-324,175,381,-453
2,257649,-1889,153,-400,-1026,-582,-324,175,381,-453
2,257654,-1889,153,-400,-1026,-582,-324,175,381,-453
2,257659,-1886,157,-405,-1023,-578,-326,175,381,-453
2,257667,-1886,157,-405,-1023,-578,-326,175,381,-453
2,257673,-1886,157,-405,-1023,-578,-326,175,381,-453
2,257680,-1886,154,-405,-1021,-571,-328,179,389,-445
2,257685,-1886,154,-405,-1021,-571,-328,179,389,-445
2,257692,-1886,154,-405,-1021,-571,-328,179,389,-445
2,257697,-1886,154,-405,-1021,-571,-328,179,389,-445
2,257702,-1888,156,-400,-1023,-572,-326,179,389,-445
2,257708,-1888,156,-400,-1023,-572,-326,179,389,-445
2,257712,-1888,156,-400,-1023,-572,-326,179,389,-445
2,257717,-1888,156,-400,-1023,-572,-326,179,389,-445
2,257721,-1886,158,-401,-1024,-573,-322,179,389,-445
2,257726,-1886,158,-401,-1024,-573,-322,179,389,-445
2,257730,-1886,158,-401,-1024,-573,-322,179,389,-445
2,257736,-1886,158,-401,-1024,-573,-322,179,389,-445
2,257741,-1888,153,-395,-1026,-573,-328,179,389,-445
2,257745,-1888,153,-395,-1026,-573,-328,179,389,-445
2,257751,-1888,153,-395,-1026,-573,-328,179,389,-445
2,257757,-1888,153,-395,-1026,-573,-328,179,389,-445
2,257762,-1889,156,-403,-1027,-579,-321,179,389,-445
2,257767,-1889,156,-403,-1027,-579,-321,179,389,-445
2,257773,-1889,156,-403,-1027,-579,-321,179,389,-445
2,257778,-1889,156,-403,-1027,-579,-321,179,389,-445
2,257783,-1886,157,-399,-1025,-575,-330,179,389,-445
2,257790,-1886,157,-399,-1025,-575,-330,179,389,-445
2,257796,-1886,157,-399,-1025,-575,-330,179,389,-445
2,257801,-1884,155,-410,-1034,-580,-321,179,389,-445
2,257806,-1884,155,-410,-1034,-580,-321,179,389,-445
2,257811,-1884,155,-410,-1034,-580,-321,179,389,-445
2,257817,-1884,155,-410,-1034,-580,-321,179,389,-445
2,257822,-1888,156,-404,-1027,-581,-319,177,389,-451
2,257827,-1888,156,-404,-1027,-581,-319,177,389,-451
2,257832,-1888,156,-404,-1027,-581,-319,177,389,-451
2,257839,-1888,156,-404,-1027,-581,-319,177,389,-451
2,257844,-1888,154,-407,-1024,-587,-330,177,389,-451
2,257849,-1888,154,-407,-1024,-587,-330,177,389,-451
2,257856,-1888,154,-407,-1024,-587,-330,177,389,-451
2,257861,-1887,155,-403,-1027,-583,-332,177,389,-451
2,257867,-1887,155,-403,-1027,-583,-332,177,389,-451
2,257872,-1887,155,-403,-1027,-583,-332,177,389,-451
2,257879,-1887,155,-403,-1027,-583,-332,177,389,-451
2,257884,-1888,156,-404,-1020,-578,-321,177,389,-451
2,257889,-1888,156,-404,-1020,-578,-321,177,389,-451
2,257895,-1888,156,-404,-1020,-578,-321,177,389,-451
2,257900,-1888,156,-404,-1020,-578,-321,177,389,-451
2,257905,-1888,156,-404,-1020,-578,-321,177,389,-451
2,257910,-1888,156,-404,-1020,-578,-321,177,389,-451
2,257916,-1888,156,-404,-1020,-578,-321,177,389,-451
2,257922,-1886,154,-405,-1019,-567,-324,177,389,-451
2,257927,-1886,154,-405,-1019,-567,-324,177,389,-451
2,257933,-1886,154,-405,-1019,-567,-324,177,389,-451
2,257938,-1886,154,-405,-1019,-567,-324,177,389,-451
2,257944,-1888,152,-399,-1033,-576,-327,180,390,-446
2,257950,-1888,152,-399,-1033,-576,-327,180,390,-446
2,257955,-1888,152,-399,-1033,-576,-327,180,390,-446
2,257960,-1887,152,-403,-1029,-574,-324,180,390,-446
2,257966,-1887,152,-403,-1029,-574,-324,180,390,-446
2,257971,-1887,152,-403,-1029,-574,-324,180,390,-446
2,257977,-1887,152,-403,-1029,-574,-324,180,390,-446
2,257982,-1887,154,-400,-1024,-579,-328,180,390,-446
2,257988,-1887,154,-400,-1024,-579,-328,180,390,-446
2,257993,-1887,154,-400,-1024,-579,-328,180,390,-446
2,257997,-1887,154,-400,-1024,-579,-328,180,390,-446
2,258003,-1889,154,-402,-1032,-581,-334,180,390,-446
2,258009,-1889,154,-402,-1032,-581,-334,180,390,-446
2,258015,-1889,154,-402,-1032,-581,-334,180,390,-446
2,258020,-1887,155,-405,-1032,-579,-320,180,390,-446
2,258026,-1887,155,-405,-1032,-579,-320,180,390,-446
2,258031,-1887,155,-405,-1032,-579,-320,180,390,-446
2,258036,-1887,155,-405,-1032,-579,-320,180,390,-446
2,258042,-1887,154,-405,-1018,-581,-322,180,390,-446
2,258048,-1887,154,-405,-1018,-581,-322,180,390,-446
2,258054,-1887,154,-405,-1018,-581,-322,180,390,-446
2,258060,-1890,156,-406,-1026,-576,-326,180,390,-446
2,258065,-1890,156,-406,-1026,-576,-326,180,390,-446
2,258071,-1890,156,-406,-1026,-576,-326,180,390,-446
2,258076,-1890,156,-406,-1026,-576,-326,180,390,-446
2,258081,-1887,155,-400,-1030,-573,-331,180,390,-444
2,258087,-1887,155,-400,-1030,-573,-331,180,390,-444
2,258093,-1887,155,-400,-1030,-573,-331,180,390,-444
2,258099,-1887,155,-400,-1030,-573,-331,180,390,-444
2,258105,-1888,153,-400,-1029,-580,-330,180,390,-444
2,258109,-1888,153,-400,-1029,-580,-330,180,390,-444
2,258115,-1888,153,-400,-1029,-580,-330,180,390,-444
2,258121,-1888,153,-400,-1029,-580,-330,180,390,-444
2,258126,-1888,153,-400,-1029,-580,-330,180,390,-444
2,258131,-1888,153,-400,-1029,-580,-330,180,390,-444
2,258138,-1888,153,-400,-1029,-580,-330,180,390,-444
2,258143,-1887,155,-400,-1028,-576,-328,180,390,-444
2,258149,-1887,155,-400,-1028,-576,-328,180,390,-444
2,258155,-1887,155,-400,-1028,-576,-328,180,390,-444
2,258160,-1886,157,-401,-1027,-573,-328,180,390,-444
2,258165,-1886,157,-401,-1027,-573,-328,180,390,-444
2,258171,-1886,157,-401,-1027,-573,-328,180,390,-444
2,258177,-1886,157,-401,-1027,-573,-328,180,390,-444
2,258182,-1887,155,-404,-1024,-573,-333,180,390,-444
2,258188,-1887,155,-404,-1024,-573,-333,180,390,-444
2,258193,-1887,155,-404,-1024,-573,-333,180,390,-444
2,258198,-1887,155,-404,-1024,-573,-333,180,390,-444
2,258204,-1887,152,-397,-1018,-571,-326,184,386,-452
2,258209,-1887,152,-397,-1018,-571,-326,184,386,-452
2,258214,-1887,152,-397,-1018,-571,-326,184,386,-452
2,258220,-1890,151,-402,-1027,-574,-331,184,386,-452
2,258226,-1890,151,-402,-1027,-574,-331,184,386,-452
2,258232,-1890,151,-402,-1027,-574,-331,184,386,-452
2,258237,-1890,151,-402,-1027,-574,-331,184,386,-452
2,258242,-1886,153,-398,-1017,-578,-325,184,386,-452
2,258247,-1886,153,-398,-1017,-578,-325,184,386,-452
2,258252,-1886,153,-398,-1017,-578,-325,184,386,-452
2,258258,-1886,153,-398,-1017,-578,-325,184,386,-452
2,258264,-1885,156,-409,-1028,-585,-326,184,386,-452
2,258269,-1885,156,-409,-1028,-585,-326,184,386,-452
2,258274,-1885,156,-409,-1028,-585,-326,184,386,-452
2,258279,-1883,156,-404,-1025,-578,-320,184,386,-452
2,258285,-1883,156,-404,-1025,-578,-320,184,386,-452
2,258290,-1883,156,-404,-1025,-578,-320,184,386,-452
2,258295,-1883,156,-404,-1025,-578,-320,184,386,-452
2,258300,-1886,152,-399,-1022,-581,-330,184,386,-452
2,258306,-1886,152,-399,-1022,-581,-330,184,386,-452
2,258312,-1886,152,-399,-1022,-581,-330,184,386,-452
2,258317,-1886,152,-399,-1022,-581,-330,184,386,-452
2,258323,-1885,155,-402,-1022,-586,-324,175,375,-449
2,258328,-1885,155,-402,-1022,-586,-324,175,375,-449
2,258333,-1885,155,-402,-1022,-586,-324,175,375,-449
2,258338,-1885,155,-402,-1022,-586,-324,175,375,-449
2,258344,-1886,153,-401,-1015,-581,-320,175,375,-449
2,258350,-1886,153,-401,-1015,-581,-320,175,375,-449
2,258355,-1886,153,-401,-1015,-581,-320,175,375,-449
2,258361,-1888,155,-401,-1017,-571,-320,175,375,-449
2,258366,-1888,155,-401,-1017,-571,-320,175,375,-449
2,258371,-1888,155,-401,-1017,-571,-320,175,375,-449
2,258377,-1888,155,-401,-1017,-571,-320,175,375,-449
2,258381,-1890,153,-406,-1012,-578,-324,175,375,-449
2,258387,-1890,153,-406,-1012,-578,-324,175,375,-449
2,258394,-1890,153,-406,-1012,-578,-324,175,375,-449
2,258399,-1890,153,-406,-1012,-578,-324,175,375,-449
2,258405,-1887,152,-404,-1022,-577,-324,175,375,-449
2,258410,-1887,152,-404,-1022,-577,-324,175,375,-449
2,258416,-1887,152,-404,-1022,-577,-324,175,375,-449
2,258421,-1887,155,-401,-1022,-587,-332,175,375,-449
2,258426,-1887,155,-401,-1022,-587,-332,175,375,-449
2,258432,-1887,155,-401,-1022,-587,-332,175,375,-449
2,258438,-1887,155,-401,-1022,-587,-332,175,375,-449
2,258443,-1886,155,-396,-1020,-582,-326,175,375,-449
2,258449,-1886,155,-396,-1020,-582,-326,175,375,-449
2,258454,-1886,155,-396,-1020,-582,-326,175,375,-449
2,258459,-1886,155,-396,-1020,-582,-326,175,375,-449
2,258464,-1888,153,-396,-1026,-581,-326,167,387,-451
2,258469,-1888,153,-396,-1026,-581,-326,167,387,-451
2,258476,-1888,153,-396,-1026,-581,-326,167,387,-451
2,258481,-1884,156,-403,-1025,-581,-324,167,387,-451
2,258486,-1884,156,-403,-1025,-581,-324,167,387,-451
2,258492,-1884,156,-403,-1025,-581,-324,167,387,-451
2,258497,-1884,156,-403,-1025,-581,-324,167,387,-451
2,258502,-1885,155,-401,-1023,-579,-322,167,387,-451
2,258507,-1885,155,-401,-1023,-579,-322,167,387,-451
2,258513,-1885,155,-401,-1023,-579,-322,167,387,-451
2,258519,-1885,155,-401,-1023,-579,-322,167,387,-451
2,258524,-1884,156,-400,-1021,-578,-325,167,387,-451
2,258529,-1884,156,-400,-1021,-578,-325,167,387,-451
2,258535,-1884,156,-400,-1021,-578,-325,167,387,-451
2,258540,-1887,155,-407,-1023,-580,-326,167,387,-451
2,258546,-1887,155,-407,-1023,-580,-326,167,387,-451
2,258551,-1887,155,-407,-1023,-580,-326,167,387,-451
2,258556,-1887,155,-407,-1023,-580,-326,167,387,-451
2,258562,-1887,154,-404,-1025,-577,-326,167,387,-451
2,258567,-1887,154,-404,-1025,-577,-326,167,387,-451
2,258572,-1887,154,-404,-1025,-577,-326,167,387,-451
2,258577,-1887,154,-404,-1025,-577,-326,167,387,-451
2,258583,-1889,154,-406,-1025,-583,-324,182,384,-444
2,258588,-1889,154,-406,-1025,-583,-324,182,384,-444
2,258593,-1889,154,-406,-1025,-583,-324,182,384,-444
2,258599,-1889,154,-406,-1025,-583,-324,182,384,-444
2,258605,-1890,157,-403,-1021,-574,-325,182,384,-444
2,258611,-1890,157,-403,-1021,-574,-325,182,384,-444
2,258616,-1890,157,-403,-1021,-574,-325,182,384,-444
2,258621,-1887,155,-400,-1018,-574,-319,182,384,-444
2,258627,-1887,155,-400,-1018,-574,-319,182,384,-444
2,258632,-1887,155,-400,-1018,-574,-319,182,384,-444
2,258638,-1887,155,-400,-1018,-574,-319,182,384,-444
2,258642,-1886,157,-408,-1020,-577,-331,182,384,-444
2,258649,-1886,157,-408,-1020,-577,-331,182,384,-444
2,258655,-1886,157,-408,-1020,-577,-331,182,384,-444
2,258660,-1889,157,-405,-1026,-581,-329,182,384,-444
2,258665,-1889,157,-405,-1026,-581,-329,182,384,-444
2,258671,-1889,157,-405,-1026,-581,-329,182,384,-444
2,258676,-1889,157,-405,-1026,-581,-329,182,384,-444
2,258682,-1888,155,-408,-1027,-584,-330,182,384,-444
2,258686,-1888,155,-408,-1027,-584,-330,182,384,-444
2,258693,-1888,155,-408,-1027,-584,-330,182,384,-444
2,258698,-1888,155,-408,-1027,-584,-330,182,384,-444
2,258704,-1888,154,-399,-1031,-587,-323,182,384,-444
2,258709,-1888,154,-399,-1031,-587,-323,182,384,-444
2,258715,-1888,154,-399,-1031,-587,-323,182,384,-444
2,258720,-1890,152,-402,-1025,-582,-324,185,389,-447
2,258726,-1890,152,-402,-1025,-582,-324,185,389,-447
2,258731,-1890,152,-402,-1025,-582,-324,185,389,-447
2,258737,-1890,152,-402,-1025,-582,-324,185,389,-447
2,258743,-1888,155,-398,-1022,-579,-327,185,389,-447
2,258748,-1888,155,-398,-1022,-579,-327,185,389,-447
2,258753,-1888,155,-398,-1022,-579,-327,185,389,-447
2,258759,-1888,155,-398,-1022,-579,-327,185,389,-447
2,258764,-1888,152,-401,-1025,-575,-327,185,389,-447
2,258770,-1888,152,-401,-1025,-575,-327,185,389,-447
2,258776,-1888,152,-401,-1025,-575,-327,185,389,-447
2,258782,-1889,155,-399,-1020,-575,-329,185,389,-447
2,258788,-1889,155,-399,-1020,-575,-329,185,389,-447
2,258793,-1889,155,-399,-1020,-575,-329,185,389,-447
2,258798,-1889,155,-399,-1020,-575,-329,185,389,-447
2,258804,-1889,155,-403,-1023,-577,-327,185,389,-447
2,258809,-1889,155,-403,-1023,-577,-327,185,389,-447
2,258814,-1889,155,-403,-1023,-577,-327,185,389,-447
2,258820,-1889,155,-403,-1023,-577,-327,185,389,-447
2,258825,-1888,155,-407,-1019,-580,-327,185,389,-447
2,258830,-1888,155,-407,-1019,-580,-327,185,389,-447
2,258836,-1888,155,-407,-1019,-580,-327,185,389,-447
2,258841,-1886,155,-398,-1015,-577,-327,191,387,-441
2,258847,-1886,155,-398,-1015,-577,-327,191,387,-441
2,258851,-1886,155,-398,-1015,-577,-327,191,387,-441
2,258857,-1886,155,-398,-1015,-577,-327,191,387,-441
2,258863,-1886,155,-405,-1025,-578,-320,191,387,-441
2,258869,-1886,155,-405,-1025,-578,-320,191,387,-441
2,258874,-1886,155,-405,-1025,-578,-320,191,387,-441
2,258879,-1886,155,-405,-1025,-578,-320,191,387,-441
2,258885,-1887,156,-403,-1026,-581,-324,191,387,-441
2,258890,-1887,156,-403,-1026,-581,-324,191,387,-441
2,258895,-1887,156,-403,-1026,-581,-324,191,387,-441
2,258902,-1889,152,-403,-1023,-581,-325,191,387,-441
2,258908,-1889,152,-403,-1023,-581,-325,191,387,-441
2,258913,-1889,152,-403,-1023,-581,-325,191,387,-441
2,258919,-1889,152,-403,-1023,-581,-325,191,387,-441
2,258924,-1887,154,-405,-1015,-577,-334,191,387,-441
2,258930,-1887,154,-405,-1015,-577,-334,191,387,-441
2,258935,-1887,154,-405,-1015,-577,-334,191,387,-441
2,258941,-1887,158,-409,-1023,-582,-321,191,387,-441
2,258947,-1887,158,-409,-1023,-582,-321,191,387,-441
2,258952,-1887,158,-409,-1023,-582,-321,191,387,-441
2,258958,-1887,158,-409,-1023,-582,-321,191,387,-441
2,258963,-1888,155,-401,-1023,-589,-324,177,393,-447
2,258969,-1888,155,-401,-1023,-589,-324,177,393,-447
2,258974,-1888,155,-401,-1023,-589,-324,177,393,-447
2,258979,-1888,155,-401,-1023,-589,-324,177,393,-447
2,258985,-1888,153,-405,-1019,-584,-329,177,393,-447
2,258991,-1888,153,-405,-1019,-584,-329,177,393,-447
2,258996,-1888,153,-405,-1019,-584,-329,177,393,-447
2,259002,-1890,154,-402,-1015,-581,-323,177,393,-447
2,259007,-1890,154,-402,-1015,-581,-323,177,393,-447
2,259012,-1890,154,-402,-1015,-581,-323,177,393,-447
2,259018,-1890,154,-402,-1015,-581,-323,177,393,-447
2,259023,-1886,156,-401,-1025,-580,-324,177,393,-447
2,259030,-1886,156,-401,-1025,-580,-324,177,393,-447
2,259036,-1886,156,-401,-1025,-580,-324,177,393,-447
2,259041,-1889,154,-400,-1025,-580,-320,177,393,-447
2,259047,-1889,154,-400,-1025,-580,-320,177,393,-447
2,259052,-1889,154,-400,-1025,-580,-320,177,393,-447
2,259058,-1889,154,-400,-1025,-580,-320,177,393,-447
2,259063,-1888,154,-405,-1024,-583,-327,177,393,-447
2,259069,-1888,154,-405,-1024,-583,-327,177,393,-447
2,259074,-1888,154,-405,-1024,-583,-327,177,393,-447
2,259080,-1888,154,-405,-1024,-583,-327,177,393,-447
2,259086,-1888,153,-404,-1015,-590,-325,177,393,-447
2,259091,-1888,153,-404,-1015,-590,-325,177,393,-447
2,259096,-1888,153,-404,-1015,-590,-325,177,393,-447
2,259101,-1887,153,-398,-1018,-583,-326,180,388,-446
2,259107,-1887,153,-398,-1018,-583,-326,180,388,-446
2,259113,-1887,153,-398,-1018,-583,-326,180,388,-446
2,259119,-1887,153,-398,-1018,-583,-326,180,388,-446
2,259125,-1890,156,-399,-1025,-578,-324,180,388,-446
2,259130,-1890,156,-399,-1025,-578,-324,180,388,-446
2,259135,-1890,156,-399,-1025,-578,-324,180,388,-446
2,259141,-1888,153,-406,-1021,-578,-321,180,388,-446
2,259146,-1888,153,-406,-1021,-578,-321,180,388,-446
2,259151,-1888,153,-406,-1021,-578,-321,180,388,-446
2,259158,-1888,153,-406,-1021,-578,-321,180,388,-446
2,259163,-1887,154,-404,-1024,-575,-319,180,388,-446
2,259169,-1887,154,-404,-1024,-575,-319,180,388,-446
2,259174,-1887,154,-404,-1024,-575,-319,180,388,-446
2,259179,-1887,154,-404,-1024,-575,-319,180,388,-446
2,259185,-1887,155,-406,-1016,-579,-326,180,388,-446
2,259190,-1887,155,-406,-1016,-579,-326,180,388,-446
2,259195,-1887,155,-406,-1016,-579,-326,180,388,-446
2,259202,-1883,153,-403,-1018,-576,-330,180,388,-446
2,259207,-1883,153,-403,-1018,-576,-330,180,388,-446
2,259212,-1883,153,-403,-1018,-576,-330,180,388,-446
2,259218,-1883,153,-403,-1018,-576,-330,180,388,-446
2,259223,-1886,157,-405,-1021,-582,-327,173,383,-445
2,259229,-1886,157,-405,-1021,-582,-327,173,383,-445
2,259234,-1886,157,-405,-1021,-582,-327,173,383,-445
2,259239,-1886,157,-405,-1021,-582,-327,173,383,-445
2,259245,-1887,152,-402,-1026,-575,-323,173,383,-445
2,259251,-1887,152,-402,-1026,-575,-323,173,383,-445
2,259257,-1887,152,-402,-1026,-575,-323,173,383,-445
2,259262,-1887,153,-405,-1031,-580,-328,173,383,-445
2,259267,-1887,153,-405,-1031,-580,-328,173,383,-445
2,259273,-1887,153,-405,-1031,-580,-328,173,383,-445
2,259278,-1887,153,-405,-1031,-580,-328,173,383,-445
2,259284,-1888,156,-404,-1023,-571,-327,173,383,-445
2,259290,-1888,156,-404,-1023,-571,-327,173,383,-445
2,259295,-1888,156,-404,-1023,-571,-327,173,383,-445
2,259300,-1888,156,-404,-1023,-571,-327,173,383,-445
2,259306,-1885,156,-409,-1016,-576,-318,173,383,-445
2,259311,-1885,156,-409,-1016,-576,-318,173,383,-445
2,259317,-1885,156,-409,-1016,-576,-318,173,383,-445
2,259322,-1888,154,-408,-1031,-577,-319,173,383,-445
2,259329,-1888,154,-408,-1031,-577,-319,173,383,-445
2,259334,-1888,154,-408,-1031,-577,-319,173,383,-445
2,259339,-1888,154,-408,-1031,-577,-319,173,383,-445
2,259345,-1889,155,-402,-1027,-578,-318,173,383,-445
2,259350,-1889,155,-402,-1027,-578,-318,173,383,-445
2,259356,-1889,155,-402,-1027,-578,-318,173,383,-445
2,259361,-1886,156,-402,-1015,-571,-319,176,390,-438
2,259367,-1886,156,-402,-1015,-571,-319,176,390,-438
2,259373,-1886,156,-402,-1015,-571,-319,176,390,-438
2,259378,-1886,156,-402,-1015,-571,-319,176,390,-438
2,259384,-1888,157,-403,-1021,-583,-329,176,390,-438
2,259390,-1888,157,-403,-1021,-583,-329,176,390,-438
2,259395,-1888,157,-403,-1021,-583,-329,176,390,-438
2,259400,-1888,157,-403,-1021,-583,-329,176,390,-438
2,259405,-1888,154,-406,-1020,-576,-328,176,390,-438
2,259410,-1888,154,-406,-1020,-576,-328,176,390,-438
2,259417,-1888,154,-406,-1020,-576,-328,176,390,-438
2,259422,-1886,155,-398,-1016,-577,-326,176,390,-438
2,259427,-1886,155,-398,-1016,-577,-326,176,390,-438
2,259433,-1886,155,-398,-1016,-577,-326,176,390,-438
2,259438,-1886,155,-398,-1016,-577,-326,176,390,-438
2,259444,-1886,154,-402,-1025,-581,-333,176,390,-438
2,259449,-1886,154,-402,-1025,-581,-333,176,390,-438
2,259456,-1886,154,-402,-1025,-581,-333,176,390,-438
2,259461,-1889,157,-408,-1028,-578,-336,176,390,-438
2,259467,-1889,157,-408,-1028,-578,-336,176,390,-438
2,259473,-1889,157,-408,-1028,-578,-336,176,390,-438
2,259478,-1889,157,-408,-1028,-578,-336,176,390,-438
2,259483,-1891,155,-404,-1026,-581,-331,174,388,-442
2,259489,-1891,155,-404,-1026,-581,-331,174,388,-442
2,259495,-1891,155,-404,-1026,-581,-331,174,388,-442
2,259502,-1887,151,-400,-1020,-583,-329,174,388,-442
2,259507,-1887,151,-400,-1020,-583,-329,174,388,-442
2,259512,-1887,151,-400,-1020,-583,-329,174,388,-442
2,259518,-1887,151,-400,-1020,-583,-329,174,388,-442
2,259523,-1886,155,-405,-1026,-587,-325,174,388,-442
2,259528,-1886,155,-405,-1026,-587,-325,174,388,-442
2,259533,-1886,155,-405,-1026,-587,-325,174,388,-442
2,259539,-1886,155,-405,-1026,-587,-325,174,388,-442
2,259544,-1886,155,-402,-1038,-580,-315,174,388,-442
2,259550,-1886,155,-402,-1038,-580,-315,174,388,-442
2,259555,-1886,155,-402,-1038,-580,-315,174,388,-442
2,259561,-1886,155,-402,-1038,-580,-315,174,388,-442
2,259566,-1886,157,-403,-1027,-579,-323,174,388,-442
2,259571,-1886,157,-403,-1027,-579,-323,174,388,-442
2,259576,-1886,157,-403,-1027,-579,-323,174,388,-442
2,259582,-1889,153,-402,-1023,-579,-324,174,388,-442
2,259588,-1889,153,-402,-1023,-579,-324,174,388,-442
2,259593,-1889,153,-402,-1023,-579,-324,174,388,-442
2,259599,-1889,153,-402,-1023,-579,-324,174,388,-442
2,259605,-1886,155,-401,-1015,-576,-321,184,388,-450
2,259610,-1886,155,-401,-1015,-576,-321,184,388,-450
2,259615,-1886,155,-401,-1015,-576,-321,184,388,-450
2,259620,-1886,155,-401,-1015,-576,-321,184,388,-450
2,259627,-1891,156,-401,-1019,-579,-321,184,388,-450
2,259632,-1891,156,-401,-1019,-579,-321,184,388,-450
2,259638,-1891,156,-401,-1019,-579,-321,184,388,-450
2,259643,-1889,155,-404,-1027,-583,-329,184,388,-450
2,259649,-1889,155,-404,-1027,-583,-329,184,388,-450
2,259654,-1889,155,-404,-1027,-583,-329,184,388,-450
2,259659,-1889,155,-404,-1027,-583,-329,184,388,-450
2,259664,-1888,154,-406,-1020,-578,-325,184,388,-450
2,259671,-1888,154,-406,-1020,-578,-325,184,388,-450
2,259676,-1888,154,-406,-1020,-578,-325,184,388,-450
2,259682,-1887,155,-404,-1024,-581,-320,184,388,-450
2,259688,-1887,155,-404,-1024,-581,-320,184,388,-450
2,259693,-1887,155,-404,-1024,-581,-320,184,388,-450
2,259699,-1887,155,-404,-1024,-581,-320,184,388,-450
2,259704,-1888,153,-405,-1025,-592,-327,184,388,-450
2,259710,-1888,153,-405,-1025,-592,-327,184,388,-450
2,259717,-1888,153,-405,-1025,-592,-327,184,388,-450
2,259722,-1887,155,-400,-1031,-589,-325,184,388,-450
2,259727,-1887,155,-400,-1031,-589,-325,184,388,-450
2,259732,-1887,155,-400,-1031,-589,-325,184,388,-450
2,259737,-1887,155,-400,-1031,-589,-325,184,388,-450
2,259742,-1889,156,-403,-1029,-587,-323,175,397,-449
2,259748,-1889,156,-403,-1029,-587,-323,175,397,-449
2,259753,-1889,156,-403,-1029,-587,-323,175,397,-449
2,259759,-1889,156,-403,-1029,-587,-323,175,397,-449
2,259764,-1888,155,-405,-1035,-579,-327,175,397,-449
2,259770,-1888,155,-405,-1035,-579,-327,175,397,-449
2,259776,-1888,155,-405,-1035,-579,-327,175,397,-449
2,259781,-1888,155,-405,-1035,-579,-327,175,397,-449
2,259786,-1890,154,-406,-1026,-578,-320,175,397,-449
2,259791,-1890,154,-406,-1026,-578,-320,175,397,-449
2,259796,-1890,154,-406,-1026,-578,-320,175,397,-449
2,259803,-1891,154,-400,-1020,-581,-322,175,397,-449
2,259808,-1891,154,-400,-1020,-581,-322,175,397,-449
2,259813,-1891,154,-400,-1020,-581,-322,175,397,-449
2,259819,-1891,154,-400,-1020,-581,-322,175,397,-449
2,259824,-1889,157,-404,-1023,-581,-315,175,397,-449
2,259829,-1889,157,-404,-1023,-581,-315,175,397,-449
2,259835,-1889,157,-404,-1023,-581,-315,175,397,-449
2,259841,-1889,157,-404,-1023,-581,-315,175,397,-449
2,259846,-1890,156,-407,-1027,-574,-316,175,397,-449
2,259851,-1890,156,-407,-1027,-574,-316,175,397,-449
2,259857,-1890,156,-407,-1027,-574,-316,175,397,-449
2,259862,-1888,155,-402,-1025,-570,-328,184,386,-452
2,259868,-1888,155,-402,-1025,-570,-328,184,386,-452
2,259873,-1888,155,-402,-1025,-570,-328,184,386,-452
2,259878,-1888,155,-402,-1025,-570,-328,184,386,-452
2,259884,-1888,152,-399,-1023,-580,-326,184,386,-452
2,259890,-1888,152,-399,-1023,-580,-326,184,386,-452
2,259895,-1888,152,-399,-1023,-580,-326,184,386,-452
2,259901,-1888,152,-399,-1023,-580,-326,184,386,-452
2,259908,-1887,155,-399,-1017,-584,-328,184,386,-452
2,259914,-1887,155,-399,-1017,-584,-328,184,386,-452
2,259919,-1887,155,-399,-1017,-584,-328,184,386,-452
2,259926,-1888,154,-402,-1022,-578,-323,184,386,-452
2,259932,-1888,154,-402,-1022,-578,-323,184,386,-452
2,259937,-1888,154,-402,-1022,-578,-323,184,386,-452
2,259942,-1890,153,-405,-1025,-582,-317,184,386,-452
2,259948,-1890,153,-405,-1025,-582,-317,184,386,-452
2,259953,-1890,153,-405,-1025,-582,-317,184,386,-452
2,259959,-1890,153,-405,-1025,-582,-317,184,386,-452
2,259964,-1886,155,-401,-1028,-588,-319,184,386,-452
2,259971,-1886,155,-401,-1028,-588,-319,184,386,-452
2,259976,-1886,155,-401,-1028,-588,-319,184,386,-452
2,259982,-1886,155,-401,-1028,-588,-319,184,386,-452
2,259987,-1888,156,-401,-1019,-584,-323,184,386,-452
2,259993,-1888,156,-401,-1019,-584,-323,184,386,-452
2,259998,-1888,156,-401,-1019,-584,-323,184,386,-452
2,260003,-1887,156,-398,-1022,-576,-321,186,388,-440
2,260009,-1887,156,-398,-1022,-576,-321,186,388,-440
2,260015,-1887,156,-398,-1022,-576,-321,186,388,-440
2,260021,-1887,156,-398,-1022,-576,-321,186,388,-440
2,260026,-1888,154,-400,-1023,-580,-325,186,388,-440
2,260031,-1888,154,-400,-1023,-580,-325,186,388,-440
