imu,time,ax,ay,az,gx,gy,gz,mx,my,mz
2,295499,196,-1868,-415,-1021,-580,-324,396,122,-320
2,295507,196,-1868,-415,-1021,-580,-324,396,122,-320
2,295516,194,-1868,-417,-1026,-583,-332,396,122,-320
2,295524,194,-1868,-417,-1026,-583,-332,396,122,-320
2,295532,197,-1866,-418,-1024,-578,-328,396,122,-320
2,295539,197,-1866,-418,-1024,-578,-328,396,122,-320
2,295547,197,-1866,-418,-1024,-578,-328,396,122,-320
2,295555,194,-1870,-415,-1032,-584,-327,396,122,-320
2,295562,194,-1870,-415,-1032,-584,-327,396,122,-320
2,295568,194,-1870,-415,-1032,-584,-327,396,122,-320
2,295575,193,-1874,-418,-1025,-576,-324,396,122,-320
2,295581,193,-1874,-418,-1025,-576,-324,396,122,-320
2,295587,193,-1874,-418,-1025,-576,-324,396,122,-320
2,295595,198,-1870,-419,-1021,-579,-324,396,122,-320
2,295601,198,-1870,-419,-1021,-579,-324,396,122,-320
2,295606,198,-1870,-419,-1021,-579,-324,396,122,-320
2,295613,194,-1868,-420,-1019,-581,-324,401,123,-333
2,295618,194,-1868,-420,-1019,-581,-324,401,123,-333
2,295625,194,-1868,-420,-1019,-581,-324,401,123,-333
2,295630,193,-1867,-410,-1018,-584,-328,401,123,-333
2,295636,193,-1867,-410,-1018,-584,-328,401,123,-333
2,295643,193,-1867,-410,-1018,-584,-328,401,123,-333
2,295648,193,-1867,-410,-1018,-584,-328,401,123,-333
2,295654,195,-1867,-423,-1026,-579,-328,401,123,-333
2,295659,195,-1867,-423,-1026,-579,-328,401,123,-333
2,295664,195,-1867,-423,-1026,-579,-328,401,123,-333
2,295670,198,-1868,-418,-1023,-579,-320,401,123,-333
2,295675,198,-1868,-418,-1023,-579,-320,401,123,-333
2,295682,198,-1868,-418,-1023,-579,-320,401,123,-333
2,295687,198,-1868,-418,-1023,-579,-320,401,123,-333
2,295693,194,-1869,-417,-1023,-583,-319,401,123,-333
2,295698,194,-1869,-417,-1023,-583,-319,401,123,-333
2,295704,194,-1869,-417,-1023,-583,-319,401,123,-333
2,295709,198,-1868,-417,-1021,-580,-323,401,123,-333
2,295714,198,-1868,-417,-1021,-580,-323,401,123,-333
2,295719,198,-1868,-417,-1021,-580,-323,401,123,-333
2,295726,198,-1868,-417,-1021,-580,-323,401,123,-333
2,295731,194,-1872,-414,-1024,-575,-330,401,123,-333
2,295737,194,-1872,-414,-1024,-575,-330,401,123,-333
2,295742,194,-1872,-414,-1024,-575,-330,401,123,-333
2,295747,194,-1872,-414,-1024,-575,-330,401,123,-333
2,295752,195,-1870,-414,-1027,-583,-328,397,131,-321
2,295758,195,-1870,-414,-1027,-583,-328,397,131,-321
2,295763,195,-1870,-414,-1027,-583,-328,397,131,-321
2,295770,191,-1870,-419,-1025,-579,-322,397,131,-321
2,295775,191,-1870,-419,-1025,-579,-322,397,131,-321
2,295780,191,-1870,-419,-1025,-579,-322,397,131,-321
2,295786,191,-1870,-419,-1025,-579,-322,397,131,-321
2,295791,193,-1865,-406,-1028,-576,-324,397,131,-321
2,295797,193,-1865,-406,-1028,-576,-324,397,131,-321
2,295803,193,-1865,-406,-1028,-576,-324,397,131,-321
2,295809,193,-1865,-406,-1028,-576,-324,397,131,-321
2,295815,192,-1869,-415,-1018,-577,-329,397,131,-321
2,295820,192,-1869,-415,-1018,-577,-329,397,131,-321
2,295825,192,-1869,-415,-1018,-577,-329,397,131,-321
2,295830,193,-1866,-417,-1019,-580,-327,397,131,-321
2,295836,193,-1866,-417,-1019,-580,-327,397,131,-321
2,295841,193,-1866,-417,-1019,-580,-327,397,131,-321
2,295847,193,-1866,-417,-1019,-580,-327,397,131,-321
2,295853,198,-1869,-421,-1020,-586,-324,397,131,-321
2,295858,198,-1869,-421,-1020,-586,-324,397,131,-321
2,295863,198,-1869,-421,-1020,-586,-324,397,131,-321
2,295869,198,-1869,-421,-1020,-586,-324,397,131,-321
2,295874,196,-1869,-415,-1025,-580,-323,389,125,-323
2,295880,196,-1869,-415,-1025,-580,-323,389,125,-323
2,295885,196,-1869,-415,-1025,-580,-323,389,125,-323
2,295891,197,-1867,-408,-1029,-584,-328,389,125,-323
2,295897,197,-1867,-408,-1029,-584,-328,389,125,-323
2,295902,197,-1867,-408,-1029,-584,-328,389,125,-323
2,295908,197,-1867,-408,-1029,-584,-328,389,125,-323
2,295914,195,-1868,-419,-1024,-581,-330,389,125,-323
2,295919,195,-1868,-419,-1024,-581,-330,389,125,-323
2,295924,195,-1868,-419,-1024,-581,-330,389,125,-323
2,295930,193,-1871,-412,-1026,-579,-335,389,125,-323
2,295936,193,-1871,-412,-1026,-579,-335,389,125,-323
2,295941,193,-1871,-412,-1026,-579,-335,389,125,-323
2,295946,193,-1871,-412,-1026,-579,-335,389,125,-323
2,295952,194,-1870,-420,-1022,-580,-328,389,125,-323
2,295957,194,-1870,-420,-1022,-580,-328,389,125,-323
2,295963,194,-1870,-420,-1022,-580,-328,389,125,-323
2,295968,194,-1870,-420,-1022,-580,-328,389,125,-323
2,295974,194,-1870,-410,-1019,-578,-325,389,125,-323
2,295980,194,-1870,-410,-1019,-578,-325,389,125,-323
2,295985,194,-1870,-410,-1019,-578,-325,389,125,-323
2,295990,192,-1874,-416,-1021,-583,-332,389,125,-323
2,295996,192,-1874,-416,-1021,-583,-332,389,125,-323
2,296001,192,-1874,-416,-1021,-583,-332,389,125,-323
2,296007,192,-1874,-416,-1021,-583,-332,389,125,-323
2,296012,195,-1870,-421,-1024,-584,-332,395,121,-325
2,296018,195,-1870,-421,-1024,-584,-332,395,121,-325
2,296024,195,-1870,-421,-1024,-584,-332,395,121,-325
2,296030,197,-1873,-414,-1020,-585,-327,395,121,-325
2,296035,197,-1873,-414,-1020,-585,-327,395,121,-325
2,296040,197,-1873,-414,-1020,-585,-327,395,121,-325
2,296046,197,-1873,-414,-1020,-585,-327,395,121,-325
2,296052,196,-1870,-416,-1028,-583,-323,395,121,-325
2,296057,196,-1870,-416,-1028,-583,-323,395,121,-325
2,296064,196,-1870,-416,-1028,-583,-323,395,121,-325
2,296069,196,-1870,-416,-1028,-583,-323,395,121,-325
2,296075,193,-1868,-418,-1019,-575,-321,395,121,-325
2,296080,193,-1868,-418,-1019,-575,-321,395,121,-325
2,296085,193,-1868,-418,-1019,-575,-321,395,121,-325
2,296090,196,-1869,-414,-1036,-584,-318,395,121,-325
2,296096,196,-1869,-414,-1036,-584,-318,395,121,-325
2,296101,196,-1869,-414,-1036,-584,-318,395,121,-325
2,296108,196,-1869,-414,-1036,-584,-318,395,121,-325
2,296113,198,-1868,-415,-1027,-575,-325,395,121,-325
2,296119,198,-1868,-415,-1027,-575,-325,395,121,-325
2,296124,198,-1868,-415,-1027,-575,-325,395,121,-325
2,296130,194,-1868,-405,-1026,-580,-324,403,125,-309
2,296136,194,-1868,-405,-1026,-580,-324,403,125,-309
2,296141,194,-1868,-405,-1026,-580,-324,403,125,-309
2,296147,194,-1868,-405,-1026,-580,-324,403,125,-309
2,296154,193,-1869,-414,-1022,-578,-322,403,125,-309
2,296159,193,-1869,-414,-1022,-578,-322,403,125,-309
2,296164,193,-1869,-414,-1022,-578,-322,403,125,-309
2,296169,193,-1869,-414,-1022,-578,-322,403,125,-309
2,296175,195,-1872,-419,-1016,-580,-331,403,125,-309
2,296180,195,-1872,-419,-1016,-580,-331,403,125,-309
2,296185,195,-1872,-419,-1016,-580,-331,403,125,-309
2,296192,194,-1868,-416,-1017,-578,-326,403,125,-309
2,296198,194,-1868,-416,-1017,-578,-326,403,125,-309
2,296203,194,-1868,-416,-1017,-578,-326,403,125,-309
2,296208,194,-1868,-416,-1017,-578,-326,403,125,-309
2,296214,195,-1871,-415,-1020,-577,-333,403,125,-309
2,296219,195,-1871,-415,-1020,-577,-333,403,125,-309
2,296224,195,-1871,-415,-1020,-577,-333,403,125,-309
2,296230,196,-1870,-419,-1019,-574,-319,403,125,-309
2,296236,196,-1870,-419,-1019,-574,-319,403,125,-309
2,296242,196,-1870,-419,-1019,-574,-319,403,125,-309
2,296247,196,-1870,-419,-1019,-574,-319,403,125,-309
2,296252,192,-1870,-418,-1031,-578,-322,390,122,-318
2,296257,192,-1870,-418,-1031,-578,-322,390,122,-318
2,296263,192,-1870,-418,-1031,-578,-322,390,122,-318
2,296268,192,-1870,-418,-1031,-578,-322,390,122,-318
2,296274,193,-1867,-413,-1028,-579,-323,390,122,-318
2,296280,193,-1867,-413,-1028,-579,-323,390,122,-318
2,296286,193,-1867,-413,-1028,-579,-323,390,122,-318
2,296291,195,-1871,-416,-1025,-585,-330,390,122,-318
2,296296,195,-1871,-416,-1025,-585,-330,390,122,-318
2,296302,195,-1871,-416,-1025,-585,-330,390,122,-318
2,296307,195,-1871,-416,-1025,-585,-330,390,122,-318
2,296313,194,-1867,-413,-1021,-580,-333,390,122,-318
2,296318,194,-1867,-413,-1021,-580,-333,390,122,-318
2,296325,194,-1867,-413,-1021,-580,-333,390,122,-318
2,296330,195,-1868,-420,-1021,-575,-325,390,122,-318
2,296335,195,-1868,-420,-1021,-575,-325,390,122,-318
2,296341,195,-1868,-420,-1021,-575,-325,390,122,-318
2,296346,195,-1868,-420,-1021,-575,-325,390,122,-318
2,296351,195,-1868,-419,-1026,-578,-324,390,122,-318
2,296357,195,-1868,-419,-1026,-578,-324,390,122,-318
2,296363,195,-1868,-419,-1026,-578,-324,390,122,-318
2,296369,195,-1868,-419,-1026,-578,-324,390,122,-318
2,296374,196,-1869,-421,-1023,-580,-322,390,122,-318
2,296379,196,-1869,-421,-1023,-580,-322,390,122,-318
2,296385,196,-1869,-421,-1023,-580,-322,390,122,-318
2,296390,193,-1866,-412,-1014,-579,-333,390,134,-316
2,296395,193,-1866,-412,-1014,-579,-333,390,134,-316
2,296400,193,-1866,-412,-1014,-579,-333,390,134,-316
2,296407,193,-1866,-412,-1014,-579,-333,390,134,-316
2,296413,193,-1870,-413,-1016,-579,-323,390,134,-316
2,296418,193,-1870,-413,-1016,-579,-323,390,134,-316
2,296423,193,-1870,-413,-1016,-579,-323,390,134,-316
2,296429,193,-1870,-413,-1016,-579,-323,390,134,-316
2,296436,194,-1866,-414,-1020,-581,-321,390,134,-316
2,296443,194,-1866,-414,-1020,-581,-321,390,134,-316
2,296450,194,-1866,-414,-1020,-581,-321,390,134,-316
2,296455,197,-1868,-415,-1021,-573,-329,390,134,-316
2,296460,197,-1868,-415,-1021,-573,-329,390,134,-316
2,296465,197,-1868,-415,-1021,-573,-329,390,134,-316
2,296470,192,-1868,-417,-1017,-578,-329,390,134,-316
2,296475,192,-1868,-417,-1017,-578,-329,390,134,-316
2,296481,192,-1868,-417,-1017,-578,-329,390,134,-316
2,296486,192,-1868,-417,-1017,-578,-329,390,134,-316
2,296492,197,-1870,-423,-1015,-581,-324,390,134,-316
2,296498,197,-1870,-423,-1015,-581,-324,390,134,-316
2,296503,197,-1870,-423,-1015,-581,-324,390,134,-316
2,296509,197,-1870,-423,-1015,-581,-324,390,134,-316
2,296514,193,-1866,-414,-1025,-577,-323,394,124,-326
2,296519,193,-1866,-414,-1025,-577,-323,394,124,-326
2,296525,193,-1866,-414,-1025,-577,-323,394,124,-326
2,296530,195,-1867,-415,-1031,-585,-320,394,124,-326
2,296536,195,-1867,-415,-1031,-585,-320,394,124,-326
2,296542,195,-1867,-415,-1031,-585,-320,394,124,-326
2,296547,195,-1867,-415,-1031,-585,-320,394,124,-326
2,296553,197,-1869,-419,-1028,-582,-317,394,124,-326
2,296558,197,-1869,-419,-1028,-582,-317,394,124,-326
2,296564,197,-1869,-419,-1028,-582,-317,394,124,-326
2,296569,197,-1869,-419,-1028,-582,-317,394,124,-326
2,296576,198,-1870,-421,-1028,-582,-324,394,124,-326
2,296581,198,-1870,-421,-1028,-582,-324,394,124,-326
2,296587,198,-1870,-421,-1028,-582,-324,394,124,-326
2,296592,192,-1867,-422,-1023,-584,-328,394,124,-326
2,296597,192,-1867,-422,-1023,-584,-328,394,124,-326
2,296602,192,-1867,-422,-1023,-584,-328,394,124,-326
2,296608,192,-1867,-422,-1023,-584,-328,394,124,-326
2,296613,195,-1869,-417,-1024,-583,-322,394,124,-326
2,296619,195,-1869,-417,-1024,-583,-322,394,124,-326
2,296625,195,-1869,-417,-1024,-583,-322,394,124,-326
2,296630,195,-1869,-417,-1024,-583,-322,394,124,-326
2,296635,194,-1870,-413,-1024,-578,-325,394,124,-326
2,296641,194,-1870,-413,-1024,-578,-325,394,124,-326
2,296646,194,-1870,-413,-1024,-578,-325,394,124,-326
2,296651,195,-1869,-409,-1013,-574,-326,392,134,-322
2,296656,195,-1869,-409,-1013,-574,-326,392,134,-322
2,296662,195,-1869,-409,-1013,-574,-326,392,134,-322
2,296668,195,-1869,-409,-1013,-574,-326,392,134,-322
2,296672,196,-1867,-417,-1023,-573,-326,392,134,-322
2,296678,196,-1867,-417,-1023,-573,-326,392,134,-322
2,296683,196,-1867,-417,-1023,-573,-326,392,134,-322
2,296688,196,-1867,-417,-1023,-573,-326,392,134,-322
2,296694,196,-1866,-422,-1026,-580,-324,392,134,-322
2,296699,196,-1866,-422,-1026,-580,-324,392,134,-322
2,296706,196,-1866,-422,-1026,-580,-324,392,134,-322
2,296711,194,-1867,-417,-1021,-581,-332,392,134,-322
2,296716,194,-1867,-417,-1021,-581,-332,392,134,-322
2,296721,194,-1867,-417,-1021,-581,-332,392,134,-322
2,296727,194,-1867,-417,-1021,-581,-332,392,134,-322
2,296732,195,-1865,-419,-1020,-578,-327,392,134,-322
2,296738,195,-1865,-419,-1020,-578,-327,392,134,-322
2,296743,195,-1865,-419,-1020,-578,-327,392,134,-322
2,296749,195,-1865,-419,-1020,-578,-327,392,134,-322
2,296755,192,-1866,-416,-1023,-576,-318,392,134,-322
2,296760,192,-1866,-416,-1023,-576,-318,392,134,-322
2,296766,192,-1866,-416,-1023,-576,-318,392,134,-322
2,296771,197,-1868,-416,-1026,-581,-320,395,127,-319
2,296777,197,-1868,-416,-1026,-581,-320,395,127,-319
2,296782,197,-1868,-416,-1026,-581,-320,395,127,-319
2,296787,197,-1868,-416,-1026,-581,-320,395,127,-319
2,296793,197,-1871,-417,-1022,-577,-327,395,127,-319
2,296799,197,-1871,-417,-1022,-577,-327,395,127,-319
2,296804,197,-1871,-417,-1022,-577,-327,395,127,-319
2,296810,197,-1871,-417,-1022,-577,-327,395,127,-319
2,296815,194,-1866,-416,-1016,-577,-331,395,127,-319
2,296820,194,-1866,-416,-1016,-577,-331,395,127,-319
2,296825,194,-1866,-416,-1016,-577,-331,395,127,-319
2,296830,191,-1867,-418,-1027,-582,-325,395,127,-319
2,296836,191,-1867,-418,-1027,-582,-325,395,127,-319
2,296842,191,-1867,-418,-1027,-582,-325,395,127,-319
2,296847,191,-1867,-418,-1027,-582,-325,395,127,-319
2,296852,194,-1869,-417,-1026,-581,-331,395,127,-319
2,296857,194,-1869,-417,-1026,-581,-331,395,127,-319
2,296863,194,-1869,-417,-1026,-581,-331,395,127,-319
2,296868,194,-1869,-417,-1026,-581,-331,395,127,-319
2,296873,197,-1868,-415,-1028,-576,-326,395,127,-319
2,296879,197,-1868,-415,-1028,-576,-326,395,127,-319
2,296885,197,-1868,-415,-1028,-576,-326,395,127,-319
2,296890,197,-1868,-415,-1028,-576,-326,395,127,-319
2,296896,195,-1870,-416,-1024,-579,-331,400,130,-320
2,296901,195,-1870,-416,-1024,-579,-331,400,130,-320
2,296907,195,-1870,-416,-1024,-579,-331,400,130,-320
2,296911,195,-1868,-411,-1025,-580,-327,400,130,-320
2,296916,195,-1868,-411,-1025,-580,-327,400,130,-320
2,296923,195,-1868,-411,-1025,-580,-327,400,130,-320
2,296929,195,-1868,-411,-1025,-580,-327,400,130,-320
2,296934,195,-1868,-414,-1032,-576,-319,400,130,-320
2,296940,195,-1868,-414,-1032,-576,-319,400,130,-320
2,296946,195,-1868,-414,-1032,-576,-319,400,130,-320
2,296953,194,-1865,-416,-1027,-574,-330,400,130,-320
2,296960,194,-1865,-416,-1027,-574,-330,400,130,-320
2,296965,194,-1865,-416,-1027,-574,-330,400,130,-320
2,296970,194,-1865,-416,-1027,-574,-330,400,130,-320
2,296976,194,-1867,-416,-1017,-577,-330,400,130,-320
2,296981,194,-1867,-416,-1017,-577,-330,400,130,-320
2,296986,194,-1867,-416,-1017,-577,-330,400,130,-320
2,296991,194,-1870,-421,-1011,-584,-328,400,130,-320
2,296997,194,-1870,-421,-1011,-584,-328,400,130,-320
2,297003,194,-1870,-421,-1011,-584,-328,400,130,-320
2,297008,194,-1870,-421,-1011,-584,-328,400,130,-320
2,297014,196,-1870,-418,-1015,-577,-321,400,130,-320
2,297019,196,-1870,-418,-1015,-577,-321,400,130,-320
2,297024,196,-1870,-418,-1015,-577,-321,400,130,-320
2,297029,196,-1870,-418,-1015,-577,-321,400,130,-320
2,297035,192,-1865,-407,-1023,-576,-318,391,125,-321
2,297040,192,-1865,-407,-1023,-576,-318,391,125,-321
2,297047,192,-1865,-407,-1023,-576,-318,391,125,-321
2,297052,189,-1870,-414,-1021,-579,-323,391,125,-321
2,297058,189,-1870,-414,-1021,-579,-323,391,125,-321
2,297063,189,-1870,-414,-1021,-579,-323,391,125,-321
2,297069,189,-1870,-414,-1021,-579,-323,391,125,-321
2,297074,194,-1865,-420,-1017,-575,-331,391,125,-321
2,297080,194,-1865,-420,-1017,-575,-331,391,125,-321
2,297085,194,-1865,-420,-1017,-575,-331,391,125,-321
2,297091,193,-1867,-418,-1021,-582,-323,391,125,-321
2,297097,193,-1867,-418,-1021,-582,-323,391,125,-321
2,297103,193,-1867,-418,-1021,-582,-323,391,125,-321
2,297108,193,-1867,-418,-1021,-582,-323,391,125,-321
2,297113,195,-1864,-421,-1010,-583,-331,391,125,-321
2,297118,195,-1864,-421,-1010,-583,-331,391,125,-321
2,297124,195,-1864,-421,-1010,-583,-331,391,125,-321
2,297129,195,-1864,-421,-1010,-583,-331,391,125,-321
2,297135,191,-1868,-417,-1010,-574,-332,391,125,-321
2,297141,191,-1868,-417,-1010,-574,-332,391,125,-321
2,297146,191,-1868,-417,-1010,-574,-332,391,125,-321
2,297151,197,-1870,-415,-1024,-580,-323,395,129,-319
2,297156,197,-1870,-415,-1024,-580,-323,395,129,-319
2,297162,197,-1870,-415,-1024,-580,-323,395,129,-319
2,297167,197,-1870,-415,-1024,-580,-323,395,129,-319
2,297172,195,-1869,-414,-1019,-584,-329,395,129,-319
2,297179,195,-1869,-414,-1019,-584,-329,395,129,-319
2,297185,195,-1869,-414,-1019,-584,-329,395,129,-319
2,297191,195,-1869,-414,-1019,-584,-329,395,129,-319
2,297196,195,-1866,-416,-1020,-580,-330,395,129,-319
2,297201,195,-1866,-416,-1020,-580,-330,395,129,-319
2,297207,195,-1866,-416,-1020,-580,-330,395,129,-319
2,297212,194,-1869,-417,-1020,-576,-331,395,129,-319
2,297218,194,-1869,-417,-1020,-576,-331,395,129,-319
2,297224,194,-1869,-417,-1020,-576,-331,395,129,-319
2,297229,194,-1869,-417,-1020,-576,-331,395,129,-319
2,297235,194,-1867,-417,-1022,-584,-331,395,129,-319
2,297240,194,-1867,-417,-1022,-584,-331,395,129,-319
2,297245,194,-1867,-417,-1022,-584,-331,395,129,-319
2,297250,194,-1867,-417,-1022,-584,-331,395,129,-319
2,297256,196,-1867,-417,-1019,-585,-330,395,129,-319
2,297261,196,-1867,-417,-1019,-585,-330,395,129,-319
2,297267,196,-1867,-417,-1019,-585,-330,395,129,-319
2,297272,192,-1867,-419,-1024,-584,-321,395,129,-319
2,297278,192,-1867,-419,-1024,-584,-321,395,129,-319
2,297283,192,-1867,-419,-1024,-584,-321,395,129,-319
2,297288,192,-1867,-419,-1024,-584,-321,395,129,-319
2,297294,194,-1868,-413,-1021,-584,-320,399,135,-319
2,297299,194,-1868,-413,-1021,-584,-320,399,135,-319
2,297306,194,-1868,-413,-1021,-584,-320,399,135,-319
2,297311,194,-1868,-413,-1021,-584,-320,399,135,-319
2,297316,196,-1867,-418,-1024,-583,-327,399,135,-319
2,297322,196,-1867,-418,-1024,-583,-327,399,135,-319
2,297327,196,-1867,-418,-1024,-583,-327,399,135,-319
2,297333,195,-1871,-418,-1022,-579,-321,399,135,-319
2,297338,195,-1871,-418,-1022,-579,-321,399,135,-319
2,297345,195,-1871,-418,-1022,-579,-321,399,135,-319
2,297350,195,-1871,-418,-1022,-579,-321,399,135,-319
2,297355,195,-1870,-421,-1015,-576,-321,399,135,-319
2,297360,195,-1870,-421,-1015,-576,-321,399,135,-319
2,297366,195,-1870,-421,-1015,-576,-321,399,135,-319
2,297371,192,-1870,-420,-1013,-579,-326,399,135,-319
2,297377,192,-1870,-420,-1013,-579,-326,399,135,-319
2,297381,192,-1870,-420,-1013,-579,-326,399,135,-319
2,297387,192,-1870,-420,-1013,-579,-326,399,135,-319
2,297393,195,-1869,-421,-1027,-583,-329,399,135,-319
2,297399,195,-1869,-421,-1027,-583,-329,399,135,-319
2,297404,195,-1869,-421,-1027,-583,-329,399,135,-319
2,297409,195,-1869,-421,-1027,-583,-329,399,135,-319
2,297414,197,-1869,-416,-1028,-577,-326,401,133,-323
2,297419,197,-1869,-416,-1028,-577,-326,401,133,-323
2,297425,197,-1869,-416,-1028,-577,-326,401,133,-323
2,297432,194,-1868,-410,-1022,-578,-333,401,133,-323
2,297437,194,-1868,-410,-1022,-578,-333,401,133,-323
2,297442,194,-1868,-410,-1022,-578,-333,401,133,-323
2,297447,194,-1868,-410,-1022,-578,-333,401,133,-323
2,297452,193,-1870,-415,-1023,-575,-327,401,133,-323
2,297458,193,-1870,-415,-1023,-575,-327,401,133,-323
2,297463,193,-1870,-415,-1023,-575,-327,401,133,-323
2,297468,193,-1870,-415,-1023,-575,-327,401,133,-323
2,297475,193,-1869,-414,-1020,-576,-317,401,133,-323
2,297480,193,-1869,-414,-1020,-576,-317,401,133,-323
2,297485,193,-1869,-414,-1020,-576,-317,401,133,-323
2,297491,193,-1869,-414,-1020,-576,-317,401,133,-323
2,297496,195,-1869,-416,-1021,-574,-324,401,133,-323
2,297502,195,-1869,-416,-1021,-574,-324,401,133,-323
2,297507,195,-1869,-416,-1021,-574,-324,401,133,-323
2,297513,194,-1867,-414,-1028,-578,-331,401,133,-323
2,297519,194,-1867,-414,-1028,-578,-331,401,133,-323
2,297524,194,-1867,-414,-1028,-578,-331,401,133,-323
2,297530,194,-1867,-414,-1028,-578,-331,401,133,-323
2,297535,192,-1866,-418,-1024,-583,-326,391,131,-317
2,297540,192,-1866,-418,-1024,-583,-326,391,131,-317
2,297546,192,-1866,-418,-1024,-583,-326,391,131,-317
2,297551,191,-1869,-422,-1023,-583,-320,391,131,-317
2,297556,191,-1869,-422,-1023,-583,-320,391,131,-317
2,297562,191,-1869,-422,-1023,-583,-320,391,131,-317
2,297568,191,-1869,-422,-1023,-583,-320,391,131,-317
2,297573,196,-1869,-415,-1015,-579,-319,391,131,-317
2,297578,196,-1869,-415,-1015,-579,-319,391,131,-317
2,297583,196,-1869,-415,-1015,-579,-319,391,131,-317
2,297589,196,-1869,-415,-1015,-579,-319,391,131,-317
2,297594,195,-1869,-414,-1025,-587,-325,391,131,-317
2,297601,195,-1869,-414,-1025,-587,-325,391,131,-317
2,297606,195,-1869,-414,-1025,-587,-325,391,131,-317
2,297611,195,-1869,-414,-1025,-587,-325,391,131,-317
2,297617,194,-1869,-414,-1017,-587,-329,391,131,-317
2,297623,194,-1869,-414,-1017,-587,-329,391,131,-317
2,297628,194,-1869,-414,-1017,-587,-329,391,131,-317
2,297634,198,-1870,-417,-1024,-588,-332,391,131,-317
2,297639,198,-1870,-417,-1024,-588,-332,391,131,-317
2,297646,198,-1870,-417,-1024,-588,-332,391,131,-317
2,297651,198,-1870,-417,-1024,-588,-332,391,131,-317
2,297657,196,-1866,-414,-1023,-577,-330,391,131,-317
2,297662,196,-1866,-414,-1023,-577,-330,391,131,-317
2,297668,196,-1866,-414,-1023,-577,-330,391,131,-317
2,297674,196,-1866,-414,-1023,-577,-330,400,124,-318
2,297679,196,-1866,-414,-1023,-577,-330,400,124,-318
2,297684,196,-1866,-414,-1023,-577,-330,400,124,-318
2,297690,196,-1866,-414,-1023,-577,-330,400,124,-318
2,297695,194,-1871,-417,-1028,-584,-332,400,124,-318
2,297700,194,-1871,-417,-1028,-584,-332,400,124,-318
2,297705,194,-1871,-417,-1028,-584,-332,400,124,-318
2,297710,194,-1871,-417,-1028,-584,-332,400,124,-318
2,297715,194,-1869,-415,-1035,-580,-328,400,124,-318
2,297721,194,-1869,-415,-1035,-580,-328,400,124,-318
2,297726,194,-1869,-415,-1035,-580,-328,400,124,-318
2,297732,194,-1869,-415,-1035,-580,-328,400,124,-318
2,297738,194,-1869,-415,-1035,-580,-328,400,124,-318
2,297743,194,-1869,-415,-1035,-580,-328,400,124,-318
2,297748,194,-1869,-415,-1035,-580,-328,400,124,-318
2,297754,197,-1870,-416,-1020,-579,-327,400,124,-318
2,297759,197,-1870,-416,-1020,-579,-327,400,124,-318
2,297765,197,-1870,-416,-1020,-579,-327,400,124,-318
2,297769,197,-1870,-416,-1020,-579,-327,400,124,-318
2,297776,195,-1868,-415,-1025,-579,-328,400,124,-318
2,297781,195,-1868,-415,-1025,-579,-328,400,124,-318
2,297787,195,-1868,-415,-1025,-579,-328,400,124,-318
2,297792,193,-1868,-416,-1016,-580,-325,400,124,-318
2,297797,193,-1868,-416,-1016,-580,-325,403,123,-317
2,297803,193,-1868,-416,-1016,-580,-325,403,123,-317
2,297808,193,-1868,-416,-1016,-580,-325,403,123,-317
2,297814,194,-1864,-416,-1021,-576,-326,403,123,-317
2,297820,194,-1864,-416,-1021,-576,-326,403,123,-317
2,297825,194,-1864,-416,-1021,-576,-326,403,123,-317
2,297831,194,-1864,-416,-1021,-576,-326,403,123,-317
2,297836,195,-1870,-416,-1026,-577,-325,403,123,-317
2,297842,195,-1870,-416,-1026,-577,-325,403,123,-317
2,297847,195,-1870,-416,-1026,-577,-325,403,123,-317
2,297852,193,-1867,-419,-1020,-583,-327,403,123,-317
2,297859,193,-1867,-419,-1020,-583,-327,403,123,-317
2,297864,193,-1867,-419,-1020,-583,-327,403,123,-317
2,297870,193,-1867,-419,-1020,-583,-327,403,123,-317
2,297875,194,-1868,-412,-1028,-583,-324,403,123,-317
2,297881,194,-1868,-412,-1028,-583,-324,403,123,-317
2,297886,194,-1868,-412,-1028,-583,-324,403,123,-317
2,297891,194,-1868,-412,-1028,-583,-324,403,123,-317
2,297897,194,-1867,-414,-1027,-582,-327,403,123,-317
2,297903,194,-1867,-414,-1027,-582,-327,403,123,-317
2,297909,194,-1867,-414,-1027,-582,-327,403,123,-317
2,297914,196,-1869,-415,-1021,-581,-329,403,123,-317
2,297919,196,-1869,-415,-1021,-581,-329,403,123,-317
2,297925,196,-1869,-415,-1021,-581,-329,403,123,-317
2,297930,196,-1869,-415,-1021,-581,-329,403,123,-317
2,297935,194,-1868,-412,-1019,-583,-326,382,126,-320
2,297940,194,-1868,-412,-1019,-583,-326,382,126,-320
2,297946,194,-1868,-412,-1019,-583,-326,382,126,-320
2,297952,194,-1868,-412,-1019,-583,-326,382,126,-320
2,297957,197,-1871,-419,-1021,-581,-328,382,126,-320
2,297962,197,-1871,-419,-1021,-581,-328,382,126,-320
2,297967,197,-1871,-419,-1021,-581,-328,382,126,-320
2,297973,195,-1866,-420,-1025,-581,-327,382,126,-320
2,297978,195,-1866,-420,-1025,-581,-327,382,126,-320
2,297985,195,-1866,-420,-1025,-581,-327,382,126,-320
2,297990,195,-1866,-420,-1025,-581,-327,382,126,-320
2,297996,194,-1868,-418,-1020,-585,-323,382,126,-320
2,298001,194,-1868,-418,-1020,-585,-323,382,126,-320
2,298007,194,-1868,-418,-1020,-585,-323,382,126,-320
2,298012,196,-1868,-418,-1030,-584,-325,382,126,-320
2,298017,196,-1868,-418,-1030,-584,-325,382,126,-320
2,298022,196,-1868,-418,-1030,-584,-325,382,126,-320
2,298029,196,-1868,-418,-1030,-584,-325,382,126,-320
2,298034,193,-1869,-421,-1020,-577,-327,382,126,-320
2,298039,193,-1869,-421,-1020,-577,-327,382,126,-320
2,298044,193,-1869,-421,-1020,-577,-327,382,126,-320
2,298050,193,-1869,-421,-1020,-577,-327,382,126,-320
2,298055,195,-1870,-417,-1026,-578,-317,389,125,-319
2,298061,195,-1870,-417,-1026,-578,-317,389,125,-319
2,298066,195,-1870,-417,-1026,-578,-317,389,125,-319
2,298072,195,-1870,-417,-1026,-578,-317,389,125,-319
2,298078,193,-1868,-416,-1028,-580,-328,389,125,-319
2,298083,193,-1868,-416,-1028,-580,-328,389,125,-319
2,298088,193,-1868,-416,-1028,-580,-328,389,125,-319
2,298093,195,-1871,-417,-1031,-582,-326,389,125,-319
2,298098,195,-1871,-417,-1031,-582,-326,389,125,-319
2,298103,195,-1871,-417,-1031,-582,-326,389,125,-319
2,298109,195,-1871,-417,-1031,-582,-326,389,125,-319
2,298115,195,-1871,-415,-1029,-587,-324,389,125,-319
2,298120,195,-1871,-415,-1029,-587,-324,389,125,-319
2,298126,195,-1871,-415,-1029,-587,-324,389,125,-319
2,298131,195,-1871,-415,-1029,-587,-324,389,125,-319
2,298136,197,-1869,-416,-1020,-576,-327,389,125,-319
2,298142,197,-1869,-416,-1020,-576,-327,389,125,-319
2,298147,197,-1869,-416,-1020,-576,-327,389,125,-319
2,298153,194,-1869,-413,-1024,-585,-331,389,125,-319
2,298159,194,-1869,-413,-1024,-585,-331,389,125,-319
2,298165,194,-1869,-413,-1024,-585,-331,389,125,-319
2,298171,194,-1869,-413,-1024,-585,-331,389,125,-319
2,298176,195,-1870,-413,-1019,-575,-326,396,128,-318
2,298182,195,-1870,-413,-1019,-575,-326,396,128,-318
2,298187,195,-1870,-413,-1019,-575,-326,396,128,-318
2,298192,194,-1868,-418,-1030,-572,-326,396,128,-318
2,298198,194,-1868,-418,-1030,-572,-326,396,128,-318
2,298204,194,-1868,-418,-1030,-572,-326,396,128,-318
2,298210,194,-1868,-418,-1030,-572,-326,396,128,-318
2,298215,194,-1868,-417,-1027,-581,-328,396,128,-318
2,298220,194,-1868,-417,-1027,-581,-328,396,128,-318
2,298225,194,-1868,-417,-1027,-581,-328,396,128,-318
2,298231,194,-1868,-417,-1027,-581,-328,396,128,-318
2,298236,196,-1867,-415,-1023,-574,-327,396,128,-318
2,298242,196,-1867,-415,-1023,-574,-327,396,128,-318
2,298247,196,-1867,-415,-1023,-574,-327,396,128,-318
2,298253,196,-1868,-418,-1021,-582,-330,396,128,-318
2,298258,196,-1868,-418,-1021,-582,-330,396,128,-318
2,298264,196,-1868,-418,-1021,-582,-330,396,128,-318
2,298269,196,-1868,-418,-1021,-582,-330,396,128,-318
2,298274,197,-1866,-417,-1032,-578,-328,396,128,-318
2,298279,197,-1866,-417,-1032,-578,-328,396,128,-318
2,298285,197,-1866,-417,-1032,-578,-328,396,128,-318
2,298291,197,-1866,-417,-1032,-578,-328,396,128,-318
2,298297,195,-1869,-419,-1031,-578,-317,396,128,-318
2,298302,195,-1869,-419,-1031,-578,-317,396,128,-318
2,298308,195,-1869,-419,-1031,-578,-317,396,128,-318
2,298313,190,-1870,-412,-1023,-584,-329,407,125,-317
2,298319,190,-1870,-412,-1023,-584,-329,407,125,-317
2,298324,190,-1870,-412,-1023,-584,-329,407,125,-317
2,298331,190,-1870,-412,-1023,-584,-329,407,125,-317
2,298336,195,-1871,-412,-1026,-584,-329,407,125,-317
2,298342,195,-1871,-412,-1026,-584,-329,407,125,-317
2,298347,195,-1871,-412,-1026,-584,-329,407,125,-317
2,298353,194,-1868,-412,-1023,-577,-323,407,125,-317
2,298358,194,-1868,-412,-1023,-577,-323,407,125,-317
2,298363,194,-1868,-412,-1023,-577,-323,407,125,-317
2,298369,194,-1868,-412,-1023,-577,-323,407,125,-317
2,298375,191,-1868,-418,-1022,-576,-328,407,125,-317
2,298380,191,-1868,-418,-1022,-576,-328,407,125,-317
2,298385,191,-1868,-418,-1022,-576,-328,407,125,-317
2,298390,191,-1868,-418,-1022,-576,-328,407,125,-317
2,298395,198,-1866,-417,-1022,-580,-329,407,125,-317
2,298400,198,-1866,-417,-1022,-580,-329,407,125,-317
2,298406,198,-1866,-417,-1022,-580,-329,407,125,-317
2,298412,198,-1866,-417,-1022,-580,-329,407,125,-317
2,298418,195,-1868,-424,-1015,-583,-329,407,125,-317
2,298423,195,-1868,-424,-1015,-583,-329,407,125,-317
2,298428,195,-1868,-424,-1015,-583,-329,407,125,-317
2,298433,194,-1866,-416,-1022,-584,-334,399,127,-317
2,298439,194,-1866,-416,-1022,-584,-334,399,127,-317
2,298444,194,-1866,-416,-1022,-584,-334,399,127,-317
2,298449,194,-1866,-416,-1022,-584,-334,399,127,-317
2,298455,194,-1866,-413,-1016,-590,-323,399,127,-317
2,298460,194,-1866,-413,-1016,-590,-323,399,127,-317
2,298465,194,-1866,-413,-1016,-590,-323,399,127,-317
2,298471,194,-1866,-413,-1016,-590,-323,399,127,-317
2,298476,193,-1872,-414,-1028,-581,-328,399,127,-317
2,298481,193,-1872,-414,-1028,-581,-328,399,127,-317
2,298487,193,-1872,-414,-1028,-581,-328,399,127,-317
2,298492,194,-1868,-413,-1028,-581,-329,399,127,-317
2,298499,194,-1868,-413,-1028,-581,-329,399,127,-317
2,298504,194,-1868,-413,-1028,-581,-329,399,127,-317
2,298510,194,-1868,-413,-1028,-581,-329,399,127,-317
2,298516,195,-1870,-418,-1026,-588,-318,399,127,-317
2,298522,195,-1870,-418,-1026,-588,-318,399,127,-317
2,298527,195,-1870,-418,-1026,-588,-318,399,127,-317
2,298532,195,-1870,-418,-1026,-588,-318,399,127,-317
2,298539,195,-1868,-419,-1018,-587,-316,399,127,-317
2,298544,195,-1868,-419,-1018,-587,-316,399,127,-317
2,298549,195,-1868,-419,-1018,-587,-316,399,127,-317
2,298554,193,-1871,-415,-1020,-583,-325,399,127,-317
2,298560,193,-1871,-415,-1020,-583,-325,399,127,-317
2,298565,193,-1871,-415,-1020,-583,-325,399,127,-317
2,298570,193,-1871,-415,-1020,-583,-325,399,127,-317
2,298576,194,-1869,-414,-1023,-579,-327,393,123,-317
2,298582,194,-1869,-414,-1023,-579,-327,393,123,-317
2,298587,194,-1869,-414,-1023,-579,-327,393,123,-317
2,298592,194,-1869,-414,-1023,-579,-327,393,123,-317
2,298597,194,-1873,-411,-1023,-580,-326,393,123,-317
2,298602,194,-1873,-411,-1023,-580,-326,393,123,-317
2,298607,194,-1873,-411,-1023,-580,-326,393,123,-317
2,298612,194,-1873,-411,-1023,-580,-326,393,123,-317
2,298617,196,-1869,-418,-1020,-579,-328,393,123,-317
2,298622,196,-1869,-418,-1020,-579,-328,393,123,-317
2,298629,196,-1869,-418,-1020,-579,-328,393,123,-317
2,298634,195,-1865,-420,-1022,-575,-328,393,123,-317
2,298640,195,-1865,-420,-1022,-575,-328,393,123,-317
2,298645,195,-1865,-420,-1022,-575,-328,393,123,-317
2,298650,195,-1865,-420,-1022,-575,-328,393,123,-317
2,298657,194,-1868,-416,-1017,-585,-329,393,123,-317
2,298663,194,-1868,-416,-1017,-585,-329,393,123,-317
2,298669,194,-1868,-416,-1017,-585,-329,393,123,-317
2,298675,193,-1868,-420,-1016,-580,-324,393,123,-317
2,298680,193,-1868,-420,-1016,-580,-324,393,123,-317
2,298685,193,-1868,-420,-1016,-580,-324,393,123,-317
2,298691,193,-1868,-420,-1016,-580,-324,393,123,-317
2,298696,195,-1869,-418,-1014,-577,-321,394,130,-320
2,298702,195,-1869,-418,-1014,-577,-321,394,130,-320
2,298708,195,-1869,-418,-1014,-577,-321,394,130,-320
2,298714,195,-1868,-414,-1016,-580,-328,394,130,-320
2,298720,195,-1868,-414,-1016,-580,-328,394,130,-320
2,298725,195,-1868,-414,-1016,-580,-328,394,130,-320
2,298731,195,-1868,-414,-1016,-580,-328,394,130,-320
2,298736,197,-1868,-416,-1018,-576,-331,394,130,-320
2,298742,197,-1868,-416,-1018,-576,-331,394,130,-320
2,298747,197,-1868,-416,-1018,-576,-331,394,130,-320
2,298753,197,-1868,-416,-1018,-576,-331,394,130,-320
2,298759,192,-1871,-414,-1022,-579,-324,394,130,-320
2,298764,192,-1871,-414,-1022,-579,-324,394,130,-320
2,298769,192,-1871,-414,-1022,-579,-324,394,130,-320
2,298775,193,-1865,-416,-1023,-579,-328,394,130,-320
2,298780,193,-1865,-416,-1023,-579,-328,394,130,-320
2,298786,193,-1865,-416,-1023,-579,-328,394,130,-320
2,298791,193,-1865,-416,-1023,-579,-328,394,130,-320
2,298797,195,-1870,-419,-1026,-582,-327,394,130,-320
2,298802,195,-1870,-419,-1026,-582,-327,394,130,-320
2,298808,195,-1870,-419,-1026,-582,-327,394,130,-320
2,298813,197,-1869,-418,-1028,-581,-326,394,130,-320
2,298819,197,-1869,-418,-1028,-581,-326,396,134,-320
2,298824,197,-1869,-418,-1028,-581,-326,396,134,-320
2,298830,197,-1869,-418,-1028,-581,-326,396,134,-320
2,298835,194,-1869,-415,-1023,-582,-325,396,134,-320
2,298841,194,-1869,-415,-1023,-582,-325,396,134,-320
2,298847,194,-1869,-415,-1023,-582,-325,396,134,-320
2,298852,194,-1869,-415,-1023,-582,-325,396,134,-320
2,298857,193,-1869,-416,-1026,-588,-326,396,134,-320
2,298863,193,-1869,-416,-1026,-588,-326,396,134,-320
2,298868,193,-1869,-416,-1026,-588,-326,396,134,-320
2,298874,192,-1866,-415,-1032,-578,-322,396,134,-320
2,298880,192,-1866,-415,-1032,-578,-322,396,134,-320
2,298885,192,-1866,-415,-1032,-578,-322,396,134,-320
2,298891,192,-1866,-415,-1032,-578,-322,396,134,-320
2,298896,193,-1867,-418,-1020,-583,-328,396,134,-320
2,298901,193,-1867,-418,-1020,-583,-328,396,134,-320
2,298906,193,-1867,-418,-1020,-583,-328,396,134,-320
2,298911,193,-1867,-418,-1020,-583,-328,396,134,-320
2,298917,194,-1867,-418,-1015,-578,-329,396,134,-320
2,298923,194,-1867,-418,-1015,-578,-329,396,134,-320
2,298929,194,-1867,-418,-1015,-578,-329,396,134,-320
2,298934,196,-1868,-422,-1019,-582,-330,396,134,-320
2,298940,196,-1868,-422,-1019,-582,-330,396,134,-320
2,298945,196,-1868,-422,-1019,-582,-330,396,134,-320
2,298950,196,-1868,-422,-1019,-582,-330,396,134,-320
2,298955,196,-1867,-414,-1025,-585,-325,395,127,-323
2,298961,196,-1867,-414,-1025,-585,-325,395,127,-323
2,298967,196,-1867,-414,-1025,-585,-325,395,127,-323
2,298973,196,-1867,-414,-1025,-585,-325,395,127,-323
2,298978,196,-1870,-413,-1020,-582,-330,395,127,-323
2,298983,196,-1870,-413,-1020,-582,-330,395,127,-323
2,298989,196,-1870,-413,-1020,-582,-330,395,127,-323
2,298994,194,-1872,-414,-1023,-581,-329,395,127,-323
2,299000,194,-1872,-414,-1023,-581,-329,395,127,-323
2,299005,194,-1872,-414,-1023,-581,-329,395,127,-323
2,299011,194,-1872,-414,-1023,-581,-329,395,127,-323
2,299017,196,-1866,-420,-1021,-582,-328,395,127,-323
2,299022,196,-1866,-420,-1021,-582,-328,395,127,-323
2,299027,196,-1866,-420,-1021,-582,-328,395,127,-323
2,299032,196,-1866,-420,-1021,-582,-328,395,127,-323
2,299038,194,-1867,-417,-1018,-574,-324,395,127,-323
2,299043,194,-1867,-417,-1018,-574,-324,395,127,-323
2,299049,194,-1867,-417,-1018,-574,-324,395,127,-323
2,299055,194,-1872,-422,-1016,-579,-325,395,127,-323
2,299061,194,-1872,-422,-1016,-579,-325,395,127,-323
2,299067,194,-1872,-422,-1016,-579,-325,395,127,-323
2,299072,194,-1872,-422,-1016,-579,-325,395,127,-323
2,299078,194,-1867,-416,-1023,-573,-327,388,126,-320
2,299084,194,-1867,-416,-1023,-573,-327,388,126,-320
2,299091,194,-1867,-416,-1023,-573,-327,388,126,-320
2,299099,194,-1869,-416,-1035,-578,-326,388,126,-320
2,299105,194,-1869,-416,-1035,-578,-326,388,126,-320
2,299111,194,-1869,-416,-1035,-578,-326,388,126,-320
2,299116,196,-1865,-417,-1033,-583,-331,388,126,-320
2,299121,196,-1865,-417,-1033,-583,-331,388,126,-320
2,299127,196,-1865,-417,-1033,-583,-331,388,126,-320
2,299132,196,-1865,-417,-1033,-583,-331,388,126,-320
2,299139,192,-1868,-415,-1027,-583,-327,388,126,-320
2,299144,192,-1868,-415,-1027,-583,-327,388,126,-320
2,299149,192,-1868,-415,-1027,-583,-327,388,126,-320
2,299155,197,-1869,-418,-1026,-580,-322,388,126,-320
2,299160,197,-1869,-418,-1026,-580,-322,388,126,-320
2,299164,197,-1869,-418,-1026,-580,-322,388,126,-320
2,299169,197,-1869,-418,-1026,-580,-322,388,126,-320
2,299174,195,-1868,-418,-1018,-582,-325,388,126,-320
2,299179,195,-1868,-418,-1018,-582,-325,388,126,-320
2,299184,195,-1868,-418,-1018,-582,-325,388,126,-320
2,299188,195,-1868,-418,-1018,-582,-325,388,126,-320
2,299193,195,-1868,-418,-1018,-582,-325,388,126,-320
2,299198,197,-1870,-414,-1023,-575,-325,388,126,-320
2,299203,197,-1870,-414,-1023,-575,-325,388,126,-320
2,299208,197,-1870,-414,-1023,-575,-325,388,126,-320
2,299213,197,-1870,-414,-1023,-575,-325,388,126,-320
2,299218,195,-1868,-412,-1016,-570,-328,387,133,-319
2,299223,195,-1868,-412,-1016,-570,-328,387,133,-319
2,299229,195,-1868,-412,-1016,-570,-328,387,133,-319
2,299234,193,-1867,-418,-1016,-574,-330,387,133,-319
2,299240,193,-1867,-418,-1016,-574,-330,387,133,-319
2,299245,193,-1867,-418,-1016,-574,-330,387,133,-319
2,299251,193,-1867,-418,-1016,-574,-330,387,133,-319
2,299256,195,-1866,-418,-1028,-585,-325,387,133,-319
2,299262,195,-1866,-418,-1028,-585,-325,387,133,-319
2,299268,195,-1866,-418,-1028,-585,-325,387,133,-319
2,299273,195,-1866,-418,-1028,-585,-325,387,133,-319
2,299279,196,-1868,-418,-1026,-582,-328,387,133,-319
2,299284,196,-1868,-418,-1026,-582,-328,387,133,-319
2,299289,196,-1868,-418,-1026,-582,-328,387,133,-319
2,299295,194,-1868,-418,-1016,-582,-327,387,133,-319
2,299300,194,-1868,-418,-1016,-582,-327,387,133,-319
2,299305,194,-1868,-418,-1016,-582,-327,387,133,-319
2,299311,194,-1868,-418,-1016,-582,-327,387,133,-319
2,299316,195,-1869,-417,-1032,-572,-327,387,133,-319
2,299321,195,-1869,-417,-1032,-572,-327,387,133,-319
2,299326,195,-1869,-417,-1032,-572,-327,387,133,-319
2,299332,195,-1869,-417,-1032,-572,-327,387,133,-319
2,299337,196,-1867,-413,-1031,-570,-333,395,131,-319
2,299343,196,-1867,-413,-1031,-570,-333,395,131,-319
2,299348,196,-1867,-413,-1031,-570,-333,395,131,-319
2,299355,193,-1865,-409,-1026,-568,-324,395,131,-319
2,299360,193,-1865,-409,-1026,-568,-324,395,131,-319
2,299365,193,-1865,-409,-1026,-568,-324,395,131,-319
2,299370,193,-1865,-409,-1026,-568,-324,395,131,-319
2,299375,197,-1870,-412,-1018,-576,-327,395,131,-319
2,299380,197,-1870,-412,-1018,-576,-327,395,131,-319
2,299386,197,-1870,-412,-1018,-576,-327,395,131,-319
2,299392,197,-1870,-412,-1018,-576,-327,395,131,-319
2,299397,194,-1868,-416,-1023,-580,-328,395,131,-319
2,299403,194,-1868,-416,-1023,-580,-328,395,131,-319
2,299408,194,-1868,-416,-1023,-580,-328,395,131,-319
2,299413,194,-1868,-416,-1023,-580,-328,395,131,-319
2,299419,194,-1865,-421,-1027,-577,-322,395,131,-319
2,299424,194,-1865,-421,-1027,-577,-322,395,131,-319
2,299430,194,-1865,-421,-1027,-577,-322,395,131,-319
2,299436,194,-1868,-417,-1023,-581,-326,395,131,-319
2,299442,194,-1868,-417,-1023,-581,-326,395,131,-319
2,299447,194,-1868,-417,-1023,-581,-326,395,131,-319
2,299453,194,-1868,-417,-1023,-581,-326,395,131,-319
2,299458,193,-1870,-420,-1022,-579,-325,391,131,-327
2,299464,193,-1870,-420,-1022,-579,-325,391,131,-327
2,299469,193,-1870,-420,-1022,-579,-325,391,131,-327
2,299475,193,-1867,-415,-1026,-585,-326,391,131,-327
2,299480,193,-1867,-415,-1026,-585,-326,391,131,-327
2,299486,193,-1867,-415,-1026,-585,-326,391,131,-327
2,299492,193,-1867,-415,-1026,-585,-326,391,131,-327
2,299497,194,-1868,-416,-1018,-579,-326,391,131,-327
2,299502,194,-1868,-416,-1018,-579,-326,391,131,-327
2,299507,194,-1868,-416,-1018,-579,-326,391,131,-327
2,299513,194,-1868,-416,-1018,-579,-326,391,131,-327
2,299518,196,-1866,-416,-1021,-585,-326,391,131,-327
2,299525,196,-1866,-416,-1021,-585,-326,391,131,-327
2,299530,196,-1866,-416,-1021,-585,-326,391,131,-327
2,299535,196,-1869,-416,-1023,-582,-326,391,131,-327
2,299540,196,-1869,-416,-1023,-582,-326,391,131,-327
2,299546,196,-1869,-416,-1023,-582,-326,391,131,-327
2,299551,196,-1869,-416,-1023,-582,-326,391,131,-327
2,299556,197,-1866,-418,-1024,-576,-322,391,131,-327
2,299561,197,-1866,-418,-1024,-576,-322,391,131,-327
2,299567,197,-1866,-418,-1024,-576,-322,391,131,-327
2,299572,197,-1866,-418,-1024,-576,-322,391,131,-327
2,299578,195,-1866,-421,-1026,-579,-329,391,131,-327
2,299584,195,-1866,-421,-1026,-579,-329,391,131,-327
2,299589,195,-1866,-421,-1026,-579,-329,391,131,-327
2,299594,196,-1868,-416,-1023,-591,-330,392,118,-320
2,299600,196,-1868,-416,-1023,-591,-330,392,118,-320
2,299606,196,-1868,-416,-1023,-591,-330,392,118,-320
2,299612,196,-1868,-416,-1023,-591,-330,392,118,-320
2,299617,194,-1868,-415,-1020,-589,-327,392,118,-320
2,299622,194,-1868,-415,-1020,-589,-327,392,118,-320
2,299628,194,-1868,-415,-1020,-589,-327,392,118,-320
2,299633,194,-1868,-415,-1020,-589,-327,392,118,-320
2,299639,194,-1866,-417,-1022,-583,-322,392,118,-320
2,299644,194,-1866,-417,-1022,-583,-322,392,118,-320
2,299651,194,-1866,-417,-1022,-583,-322,392,118,-320
2,299656,192,-1867,-412,-1022,-588,-322,392,118,-320
2,299662,192,-1867,-412,-1022,-588,-322,392,118,-320
2,299667,192,-1867,-412,-1022,-588,-322,392,118,-320
2,299673,192,-1867,-412,-1022,-588,-322,392,118,-320
2,299678,197,-1868,-417,-1024,-584,-330,392,118,-320
2,299683,197,-1868,-417,-1024,-584,-330,392,118,-320
2,299689,197,-1868,-417,-1024,-584,-330,392,118,-320
2,299695,192,-1870,-414,-1022,-583,-330,392,118,-320
2,299700,192,-1870,-414,-1022,-583,-330,392,118,-320
2,299705,192,-1870,-414,-1022,-583,-330,392,118,-320
2,299710,192,-1870,-414,-1022,-583,-330,392,118,-320
2,299716,196,-1868,-419,-1019,-583,-324,407,127,-317
2,299721,196,-1868,-419,-1019,-583,-324,407,127,-317
2,299726,196,-1868,-419,-1019,-583,-324,407,127,-317
2,299731,196,-1868,-419,-1019,-583,-324,407,127,-317
2,299737,193,-1868,-412,-1023,-587,-322,407,127,-317
2,299743,193,-1868,-412,-1023,-587,-322,407,127,-317
2,299749,193,-1868,-412,-1023,-587,-322,407,127,-317
2,299754,193,-1868,-412,-1023,-587,-322,407,127,-317
2,299759,192,-1867,-413,-1023,-581,-326,407,127,-317
2,299765,192,-1867,-413,-1023,-581,-326,407,127,-317
2,299770,192,-1867,-413,-1023,-581,-326,407,127,-317
2,299776,192,-1867,-421,-1030,-576,-326,407,127,-317
2,299781,192,-1867,-421,-1030,-576,-326,407,127,-317
2,299787,192,-1867,-421,-1030,-576,-326,407,127,-317
2,299793,192,-1867,-421,-1030,-576,-326,407,127,-317
2,299798,196,-1866,-417,-1031,-581,-321,407,127,-317
2,299803,196,-1866,-417,-1031,-581,-321,407,127,-317
2,299809,196,-1866,-417,-1031,-581,-321,407,127,-317
2,299814,196,-1866,-417,-1031,-581,-321,407,127,-317
2,299820,195,-1868,-416,-1028,-583,-319,407,127,-317
2,299826,195,-1868,-416,-1028,-583,-319,407,127,-317
2,299831,195,-1868,-416,-1028,-583,-319,407,127,-317
2,299836,194,-1867,-422,-1026,-580,-330,407,127,-317
2,299842,194,-1867,-422,-1026,-580,-330,407,127,-317
2,299847,194,-1867,-422,-1026,-580,-330,407,127,-317
2,299852,194,-1867,-422,-1026,-580,-330,407,127,-317
2,299858,194,-1866,-414,-1030,-582,-332,389,125,-313
2,299864,194,-1866,-414,-1030,-582,-332,389,125,-313
2,299869,194,-1866,-414,-1030,-582,-332,389,125,-313
2,299875,196,-1869,-416,-1025,-579,-323,389,125,-313
2,299880,196,-1869,-416,-1025,-579,-323,389,125,-313
2,299885,196,-1869,-416,-1025,-579,-323,389,125,-313
2,299890,196,-1869,-416,-1025,-579,-323,389,125,-313
2,299896,195,-1867,-416,-1015,-573,-319,389,125,-313
2,299901,195,-1867,-416,-1015,-573,-319,389,125,-313
2,299908,195,-1867,-416,-1015,-573,-319,389,125,-313
2,299913,195,-1867,-416,-1015,-573,-319,389,125,-313
2,299919,194,-1869,-419,-1020,-582,-322,389,125,-313
2,299925,194,-1869,-419,-1020,-582,-322,389,125,-313
2,299930,194,-1869,-419,-1020,-582,-322,389,125,-313
2,299935,196,-1867,-419,-1017,-574,-322,389,125,-313
2,299940,196,-1867,-419,-1017,-574,-322,389,125,-313
2,299947,196,-1867,-419,-1017,-574,-322,389,125,-313
2,299952,196,-1867,-419,-1017,-574,-322,389,125,-313
2,299957,196,-1868,-416,-1026,-573,-317,389,125,-313
2,299963,196,-1868,-416,-1026,-573,-317,389,125,-313
2,299969,196,-1868,-416,-1026,-573,-317,389,125,-313
2,299974,192,-1867,-409,-1030,-580,-323,389,125,-313
2,299980,192,-1867,-409,-1030,-580,-323,396,132,-312
2,299985,192,-1867,-409,-1030,-580,-323,396,132,-312
2,299992,192,-1867,-409,-1030,-580,-323,396,132,-312
2,299997,198,-1866,-409,-1026,-579,-326,396,132,-312
2,300002,198,-1866,-409,-1026,-579,-326,396,132,-312
2,300007,198,-1866,-409,-1026,-579,-326,396,132,-312
2,300013,198,-1866,-409,-1026,-579,-326,396,132,-312
2,300018,197,-1866,-416,-1018,-578,-322,396,132,-312
2,300024,197,-1866,-416,-1018,-578,-322,396,132,-312
2,300030,197,-1866,-416,-1018,-578,-322,396,132,-312
2,300036,194,-1867,-421,-1018,-575,-329,396,132,-312
2,300042,194,-1867,-421,-1018,-575,-329,396,132,-312
2,300047,194,-1867,-421,-1018,-575,-329,396,132,-312
2,300053,194,-1867,-421,-1018,-575,-329,396,132,-312
2,300058,194,-1868,-417,-1016,-583,-323,396,132,-312
2,300064,194,-1868,-417,-1016,-583,-323,396,132,-312
2,300069,194,-1868,-417,-1016,-583,-323,396,132,-312
2,300075,197,-1869,-420,-1019,-585,-324,396,132,-312
2,300080,197,-1869,-420,-1019,-585,-324,396,132,-312
2,300086,197,-1869,-420,-1019,-585,-324,396,132,-312
2,300091,197,-1869,-420,-1019,-585,-324,396,132,-312
2,300097,194,-1867,-424,-1023,-576,-327,396,124,-318
2,300101,194,-1867,-424,-1023,-576,-327,396,124,-318
2,300107,194,-1867,-424,-1023,-576,-327,396,124,-318
2,300112,194,-1867,-424,-1023,-576,-327,396,124,-318
2,300119,194,-1867,-417,-1020,-578,-321,396,124,-318
2,300124,194,-1867,-417,-1020,-578,-321,396,124,-318
2,300130,194,-1867,-417,-1020,-578,-321,396,124,-318
2,300135,197,-1867,-419,-1021,-587,-323,396,124,-318
2,300141,197,-1867,-419,-1021,-587,-323,396,124,-318
2,300146,197,-1867,-419,-1021,-587,-323,396,124,-318
2,300151,197,-1867,-419,-1021,-587,-323,396,124,-318
2,300157,196,-1867,-409,-1023,-587,-321,396,124,-318
2,300163,196,-1867,-409,-1023,-587,-321,396,124,-318
2,300168,196,-1867,-409,-1023,-587,-321,396,124,-318
2,300174,196,-1867,-409,-1023,-587,-321,396,124,-318
2,300179,196,-1871,-415,-1017,-587,-328,396,124,-318
2,300184,196,-1871,-415,-1017,-587,-328,396,124,-318
2,300190,196,-1871,-415,-1017,-587,-328,396,124,-318
2,300195,197,-1868,-422,-1020,-578,-328,396,124,-318
2,300201,197,-1868,-422,-1020,-578,-328,396,124,-318
2,300207,197,-1868,-422,-1020,-578,-328,396,124,-318
2,300213,197,-1868,-422,-1020,-578,-328,396,124,-318
2,300218,196,-1866,-419,-1022,-577,-330,396,124,-318
2,300223,196,-1866,-419,-1022,-577,-330,396,124,-318
2,300229,196,-1866,-419,-1022,-577,-330,396,124,-318
2,300234,196,-1866,-419,-1022,-577,-330,396,124,-318
2,300239,194,-1865,-409,-1008,-579,-326,402,136,-326
2,300246,194,-1865,-409,-1008,-579,-326,402,136,-326
2,300251,194,-1865,-409,-1008,-579,-326,402,136,-326
2,300256,194,-1865,-409,-1008,-579,-326,402,136,-326
2,300261,194,-1865,-409,-1008,-579,-326,402,136,-326
2,300267,194,-1865,-409,-1008,-579,-326,402,136,-326
2,300272,194,-1865,-409,-1008,-579,-326,402,136,-326
2,300277,192,-1868,-415,-1020,-582,-332,402,136,-326
2,300283,192,-1868,-415,-1020,-582,-332,402,136,-326
2,300290,192,-1868,-415,-1020,-582,-332,402,136,-326
2,300295,192,-1868,-415,-1020,-582,-332,402,136,-326
2,300301,197,-1866,-415,-1022,-579,-337,402,136,-326
2,300307,197,-1866,-415,-1022,-579,-337,402,136,-326
2,300312,197,-1866,-415,-1022,-579,-337,402,136,-326
2,300317,197,-1870,-419,-1017,-578,-328,402,136,-326
2,300323,197,-1870,-419,-1017,-578,-328,402,136,-326
2,300328,197,-1870,-419,-1017,-578,-328,402,136,-326
2,300335,197,-1870,-419,-1017,-578,-328,402,136,-326
2,300341,195,-1871,-420,-1024,-576,-323,402,136,-326
2,300346,195,-1871,-420,-1024,-576,-323,402,136,-326
2,300351,195,-1871,-420,-1024,-576,-323,402,136,-326
2,300357,192,-1870,-410,-1021,-573,-324,391,129,-315
2,300363,192,-1870,-410,-1021,-573,-324,391,129,-315
2,300369,192,-1870,-410,-1021,-573,-324,391,129,-315
2,300375,192,-1870,-410,-1021,-573,-324,391,129,-315
2,300380,196,-1871,-416,-1023,-575,-331,391,129,-315
2,300385,196,-1871,-416,-1023,-575,-331,391,129,-315
2,300391,196,-1871,-416,-1023,-575,-331,391,129,-315
2,300396,193,-1867,-414,-1020,-580,-330,391,129,-315
2,300402,193,-1867,-414,-1020,-580,-330,391,129,-315
2,300407,193,-1867,-414,-1020,-580,-330,391,129,-315
2,300413,193,-1867,-414,-1020,-580,-330,391,129,-315
2,300419,194,-1866,-411,-1029,-577,-329,391,129,-315
2,300424,194,-1866,-411,-1029,-577,-329,391,129,-315
2,300430,194,-1866,-411,-1029,-577,-329,391,129,-315
2,300435,194,-1867,-423,-1022,-579,-329,391,129,-315
2,300441,194,-1867,-423,-1022,-579,-329,391,129,-315
2,300446,194,-1867,-423,-1022,-579,-329,391,129,-315
2,300451,194,-1867,-423,-1022,-579,-329,391,129,-315
2,300456,194,-1867,-415,-1019,-576,-331,391,129,-315
2,300463,194,-1867,-415,-1019,-576,-331,391,129,-315
2,300468,194,-1867,-415,-1019,-576,-331,391,129,-315
2,300473,194,-1867,-415,-1019,-576,-331,391,129,-315
2,300479,193,-1870,-418,-1026,-577,-332,391,129,-315
2,300484,193,-1870,-418,-1026,-577,-332,391,129,-315
2,300490,193,-1870,-418,-1026,-577,-332,391,129,-315
2,300495,198,-1869,-416,-1026,-583,-331,391,129,-315
2,300500,198,-1869,-416,-1026,-583,-331,389,123,-319
2,300507,198,-1869,-416,-1026,-583,-331,389,123,-319
2,300512,198,-1869,-416,-1026,-583,-331,389,123,-319
2,300517,195,-1867,-410,-1032,-582,-330,389,123,-319
2,300523,195,-1867,-410,-1032,-582,-330,389,123,-319
2,300529,195,-1867,-410,-1032,-582,-330,389,123,-319
2,300534,195,-1867,-410,-1032,-582,-330,389,123,-319
2,300540,191,-1869,-413,-1026,-585,-323,389,123,-319
2,300546,191,-1869,-413,-1026,-585,-323,389,123,-319
2,300551,191,-1869,-413,-1026,-585,-323,389,123,-319
2,300557,193,-1866,-416,-1026,-581,-324,389,123,-319
2,300562,193,-1866,-416,-1026,-581,-324,389,123,-319
2,300568,193,-1866,-416,-1026,-581,-324,389,123,-319
2,300573,193,-1866,-416,-1026,-581,-324,389,123,-319
2,300579,195,-1868,-413,-1027,-585,-331,389,123,-319
2,300584,195,-1868,-413,-1027,-585,-331,389,123,-319
2,300591,195,-1868,-413,-1027,-585,-331,389,123,-319
2,300596,192,-1867,-413,-1024,-581,-329,389,123,-319
2,300603,192,-1867,-413,-1024,-581,-329,389,123,-319
2,300610,192,-1867,-413,-1024,-581,-329,389,123,-319
2,300618,194,-1866,-413,-1026,-579,-325,391,129,-317
2,300623,194,-1866,-413,-1026,-579,-325,391,129,-317
2,300630,194,-1866,-413,-1026,-579,-325,391,129,-317
2,300635,194,-1866,-413,-1026,-579,-325,391,129,-317
2,300641,192,-1870,-421,-1021,-578,-324,391,129,-317
2,300646,192,-1870,-421,-1021,-578,-324,391,129,-317
2,300652,192,-1870,-421,-1021,-578,-324,391,129,-317
2,300657,192,-1869,-417,-1019,-584,-324,391,129,-317
2,300662,192,-1869,-417,-1019,-584,-324,391,129,-317
2,300667,192,-1869,-417,-1019,-584,-324,391,129,-317
2,300673,192,-1869,-417,-1019,-584,-324,391,129,-317
2,300678,196,-1866,-419,-1020,-581,-323,391,129,-317
2,300683,196,-1866,-419,-1020,-581,-323,391,129,-317
2,300688,196,-1866,-419,-1020,-581,-323,391,129,-317
2,300694,196,-1866,-419,-1020,-581,-323,391,129,-317
2,300699,195,-1868,-417,-1020,-580,-327,391,129,-317
2,300704,195,-1868,-417,-1020,-580,-327,391,129,-317
2,300710,195,-1868,-417,-1020,-580,-327,391,129,-317
2,300716,194,-1869,-423,-1026,-586,-331,391,129,-317
2,300722,194,-1869,-423,-1026,-586,-331,391,129,-317
2,300727,194,-1869,-423,-1026,-586,-331,391,129,-317
2,300733,194,-1869,-423,-1026,-586,-331,391,129,-317
2,300737,194,-1871,-418,-1026,-586,-330,396,126,-326
2,300743,194,-1871,-418,-1026,-586,-330,396,126,-326
2,300748,194,-1871,-418,-1026,-586,-330,396,126,-326
2,300753,194,-1871,-418,-1026,-586,-330,396,126,-326
2,300760,195,-1866,-413,-1020,-585,-328,396,126,-326
2,300765,195,-1866,-413,-1020,-585,-328,396,126,-326
2,300771,195,-1866,-413,-1020,-585,-328,396,126,-326
2,300777,194,-1868,-417,-1023,-576,-328,396,126,-326
2,300782,194,-1868,-417,-1023,-576,-328,396,126,-326
2,300788,194,-1868,-417,-1023,-576,-328,396,126,-326
2,300793,194,-1868,-417,-1023,-576,-328,396,126,-326
2,300798,197,-1869,-424,-1018,-578,-326,396,126,-326
2,300805,197,-1869,-424,-1018,-578,-326,396,126,-326
2,300810,197,-1869,-424,-1018,-578,-326,396,126,-326
2,300816,197,-1869,-424,-1018,-578,-326,396,126,-326
2,300821,192,-1869,-414,-1028,-588,-329,396,126,-326
2,300826,192,-1869,-414,-1028,-588,-329,396,126,-326
2,300832,192,-1869,-414,-1028,-588,-329,396,126,-326
2,300837,193,-1869,-423,-1022,-579,-320,396,126,-326
2,300843,193,-1869,-423,-1022,-579,-320,396,126,-326
2,300849,193,-1869,-423,-1022,-579,-320,396,126,-326
2,300854,193,-1869,-423,-1022,-579,-320,396,126,-326
2,300859,192,-1866,-416,-1022,-579,-333,396,126,-326
2,300865,192,-1866,-416,-1022,-579,-333,396,126,-326
2,300871,192,-1866,-416,-1022,-579,-333,396,126,-326
2,300876,195,-1864,-417,-1019,-580,-332,392,136,-318
2,300882,195,-1864,-417,-1019,-580,-332,392,136,-318
2,300888,195,-1864,-417,-1019,-580,-332,392,136,-318
2,300893,195,-1864,-417,-1019,-580,-332,392,136,-318
2,300898,195,-1864,-417,-1019,-580,-332,392,136,-318
2,300904,195,-1864,-417,-1019,-580,-332,392,136,-318
2,300909,195,-1864,-417,-1019,-580,-332,392,136,-318
2,300915,195,-1864,-417,-1019,-580,-332,392,136,-318
2,300920,194,-1868,-424,-1024,-587,-330,392,136,-318
2,300925,194,-1868,-424,-1024,-587,-330,392,136,-318
2,300931,194,-1868,-424,-1024,-587,-330,392,136,-318
2,300937,193,-1867,-420,-1028,-583,-321,392,136,-318
2,300942,193,-1867,-420,-1028,-583,-321,392,136,-318
2,300947,193,-1867,-420,-1028,-583,-321,392,136,-318
2,300953,193,-1867,-420,-1028,-583,-321,392,136,-318
2,300959,194,-1870,-418,-1016,-573,-329,392,136,-318
2,300964,194,-1870,-418,-1016,-573,-329,392,136,-318
2,300969,194,-1870,-418,-1016,-573,-329,392,136,-318
2,300975,194,-1870,-418,-1016,-573,-329,392,136,-318
2,300981,194,-1870,-417,-1025,-580,-336,392,136,-318
2,300986,194,-1870,-417,-1025,-580,-336,392,136,-318
2,300992,194,-1870,-417,-1025,-580,-336,392,136,-318
2,300997,196,-1867,-410,-1015,-578,-322,402,128,-318
2,301002,196,-1867,-410,-1015,-578,-322,402,128,-318
2,301008,196,-1867,-410,-1015,-578,-322,402,128,-318
2,301014,196,-1867,-410,-1015,-578,-322,402,128,-318
2,301019,192,-1870,-412,-1025,-577,-317,402,128,-318
2,301024,192,-1870,-412,-1025,-577,-317,402,128,-318
2,301030,192,-1870,-412,-1025,-577,-317,402,128,-318
2,301035,192,-1870,-412,-1025,-577,-317,402,128,-318
2,301040,194,-1868,-415,-1020,-584,-321,402,128,-318
2,301046,194,-1868,-415,-1020,-584,-321,402,128,-318
2,301051,194,-1868,-415,-1020,-584,-321,402,128,-318
2,301058,193,-1867,-418,-1026,-582,-322,402,128,-318
2,301063,193,-1867,-418,-1026,-582,-322,402,128,-318
2,301069,193,-1867,-418,-1026,-582,-322,402,128,-318
2,301074,193,-1867,-418,-1026,-582,-322,402,128,-318
2,301079,196,-1869,-419,-1017,-584,-326,402,128,-318
2,301084,196,-1869,-419,-1017,-584,-326,402,128,-318
2,301090,196,-1869,-419,-1017,-584,-326,402,128,-318
2,301095,196,-1869,-419,-1017,-584,-326,402,128,-318
2,301101,195,-1868,-420,-1021,-584,-323,402,128,-318
2,301106,195,-1868,-420,-1021,-584,-323,402,128,-318
2,301111,195,-1868,-420,-1021,-584,-323,402,128,-318
2,301116,193,-1869,-413,-1026,-579,-328,402,128,-318
2,301122,193,-1869,-413,-1026,-579,-328,402,128,-318
2,301128,193,-1869,-413,-1026,-579,-328,402,128,-318
2,301133,193,-1869,-413,-1026,-579,-328,402,128,-318
2,301139,192,-1867,-409,-1029,-587,-329,386,124,-320
2,301145,192,-1867,-409,-1029,-587,-329,386,124,-320
2,301150,192,-1867,-409,-1029,-587,-329,386,124,-320
2,301156,192,-1867,-409,-1029,-587,-329,386,124,-320
2,301162,194,-1864,-415,-1028,-590,-325,386,124,-320
2,301167,194,-1864,-415,-1028,-590,-325,386,124,-320
2,301172,194,-1864,-415,-1028,-590,-325,386,124,-320
2,301178,194,-1870,-416,-1026,-581,-325,386,124,-320
2,301184,194,-1870,-416,-1026,-581,-325,386,124,-320
2,301189,194,-1870,-416,-1026,-581,-325,386,124,-320
2,301194,194,-1870,-416,-1026,-581,-325,386,124,-320
2,301200,194,-1869,-412,-1022,-576,-330,386,124,-320
2,301205,194,-1869,-412,-1022,-576,-330,386,124,-320
2,301210,194,-1869,-412,-1022,-576,-330,386,124,-320
2,301216,194,-1869,-412,-1022,-576,-330,386,124,-320
2,301221,195,-1871,-419,-1016,-576,-322,386,124,-320
2,301227,195,-1871,-419,-1016,-576,-322,386,124,-320
2,301233,195,-1871,-419,-1016,-576,-322,386,124,-320
2,301238,193,-1868,-417,-1018,-577,-331,386,124,-320
2,301244,193,-1868,-417,-1018,-577,-331,386,124,-320
2,301249,193,-1868,-417,-1018,-577,-331,386,124,-320
2,301254,193,-1868,-417,-1018,-577,-331,386,124,-320
2,301260,194,-1868,-414,-1021,-578,-328,395,129,-315
2,301265,194,-1868,-414,-1021,-578,-328,395,129,-315
2,301271,194,-1868,-414,-1021,-578,-328,395,129,-315
2,301277,194,-1869,-418,-1020,-573,-327,395,129,-315
2,301283,194,-1869,-418,-1020,-573,-327,395,129,-315
2,301288,194,-1869,-418,-1020,-573,-327,395,129,-315
2,301293,194,-1869,-418,-1020,-573,-327,395,129,-315
2,301299,196,-1868,-425,-1021,-583,-328,395,129,-315
2,301304,196,-1868,-425,-1021,-583,-328,395,129,-315
2,301309,196,-1868,-425,-1021,-583,-328,395,129,-315
2,301315,196,-1868,-425,-1021,-583,-328,395,129,-315
2,301321,194,-1868,-420,-1020,-575,-326,395,129,-315
2,301326,194,-1868,-420,-1020,-575,-326,395,129,-315
2,301331,194,-1868,-420,-1020,-575,-326,395,129,-315
2,301336,193,-1868,-421,-1024,-580,-327,395,129,-315
2,301341,193,-1868,-421,-1024,-580,-327,395,129,-315
2,301347,193,-1868,-421,-1024,-580,-327,395,129,-315
2,301352,193,-1868,-421,-1024,-580,-327,395,129,-315
2,301359,196,-1868,-417,-1021,-576,-326,395,129,-315
2,301363,196,-1868,-417,-1021,-576,-326,395,129,-315
2,301369,196,-1868,-417,-1021,-576,-326,395,129,-315
2,301375,196,-1868,-417,-1021,-576,-326,395,129,-315
2,301380,197,-1869,-418,-1027,-575,-328,394,128,-322
2,301385,197,-1869,-418,-1027,-575,-328,394,128,-322
2,301390,197,-1869,-418,-1027,-575,-328,394,128,-322
2,301396,197,-1869,-418,-1027,-575,-328,394,128,-322
2,301403,192,-1869,-410,-1023,-581,-327,394,128,-322
2,301408,192,-1869,-410,-1023,-581,-327,394,128,-322
2,301413,192,-1869,-410,-1023,-581,-327,394,128,-322
2,301418,194,-1869,-417,-1028,-581,-327,394,128,-322
2,301424,194,-1869,-417,-1028,-581,-327,394,128,-322
2,301429,194,-1869,-417,-1028,-581,-327,394,128,-322
2,301434,194,-1869,-417,-1028,-581,-327,394,128,-322
2,301440,194,-1869,-414,-1032,-581,-336,394,128,-322
2,301446,194,-1869,-414,-1032,-581,-336,394,128,-322
2,301451,194,-1869,-414,-1032,-581,-336,394,128,-322
2,301456,194,-1869,-414,-1032,-581,-336,394,128,-322
2,301462,192,-1866,-419,-1026,-580,-335,394,128,-322
2,301467,192,-1866,-419,-1026,-580,-335,394,128,-322
2,301473,192,-1866,-419,-1026,-580,-335,394,128,-322
2,301478,193,-1870,-421,-1026,-575,-326,394,128,-322
2,301484,193,-1870,-421,-1026,-575,-326,394,128,-322
2,301490,193,-1870,-421,-1026,-575,-326,394,128,-322
2,301495,193,-1870,-421,-1026,-575,-326,394,128,-322
2,301500,194,-1868,-417,-1016,-572,-324,394,128,-322
2,301506,194,-1868,-417,-1016,-572,-324,394,128,-322
2,301510,194,-1868,-417,-1016,-572,-324,394,128,-322
2,301516,194,-1868,-417,-1016,-572,-324,394,128,-322
2,301521,195,-1868,-414,-1019,-572,-333,398,132,-316
2,301528,195,-1868,-414,-1019,-572,-333,398,132,-316
2,301534,195,-1868,-414,-1019,-572,-333,398,132,-316
2,301539,195,-1868,-414,-1022,-574,-333,398,132,-316
2,301544,195,-1868,-414,-1022,-574,-333,398,132,-316
2,301550,195,-1868,-414,-1022,-574,-333,398,132,-316
2,301555,195,-1868,-414,-1022,-574,-333,398,132,-316
2,301560,193,-1869,-413,-1013,-579,-320,398,132,-316
2,301566,193,-1869,-413,-1013,-579,-320,398,132,-316
2,301572,193,-1869,-413,-1013,-579,-320,398,132,-316
2,301578,193,-1870,-418,-1023,-582,-321,398,132,-316
2,301583,193,-1870,-418,-1023,-582,-321,398,132,-316
2,301588,193,-1870,-418,-1023,-582,-321,398,132,-316
2,301593,193,-1870,-418,-1023,-582,-321,398,132,-316
2,301598,194,-1866,-416,-1023,-581,-323,398,132,-316
2,301604,194,-1866,-416,-1023,-581,-323,398,132,-316
2,301609,194,-1866,-416,-1023,-581,-323,398,132,-316
2,301615,194,-1866,-416,-1023,-581,-323,398,132,-316
2,301621,194,-1868,-419,-1024,-573,-328,398,132,-316
2,301627,194,-1868,-419,-1024,-573,-328,398,132,-316
2,301632,194,-1868,-419,-1024,-573,-328,398,132,-316
2,301637,195,-1870,-413,-1028,-580,-329,395,129,-315
2,301642,195,-1870,-413,-1028,-580,-329,395,129,-315
2,301648,195,-1870,-413,-1028,-580,-329,395,129,-315
2,301654,195,-1870,-413,-1028,-580,-329,395,129,-315
2,301660,196,-1868,-408,-1026,-579,-325,395,129,-315
2,301665,196,-1868,-408,-1026,-579,-325,395,129,-315
2,301670,196,-1868,-408,-1026,-579,-325,395,129,-315
2,301676,196,-1868,-408,-1026,-579,-325,395,129,-315
2,301681,194,-1867,-415,-1025,-582,-320,395,129,-315
2,301686,194,-1867,-415,-1025,-582,-320,395,129,-315
2,301691,194,-1867,-415,-1025,-582,-320,395,129,-315
2,301697,193,-1867,-420,-1021,-578,-323,395,129,-315
2,301703,193,-1867,-420,-1021,-578,-323,395,129,-315
2,301708,193,-1867,-420,-1021,-578,-323,395,129,-315
2,301714,193,-1867,-420,-1021,-578,-323,395,129,-315
2,301719,194,-1867,-419,-1023,-583,-326,395,129,-315
2,301725,194,-1867,-419,-1023,-583,-326,395,129,-315
2,301730,194,-1867,-419,-1023,-583,-326,395,129,-315
2,301736,194,-1867,-419,-1023,-583,-326,395,129,-315
2,301742,195,-1864,-419,-1025,-579,-328,395,129,-315
2,301747,195,-1864,-419,-1025,-579,-328,395,129,-315
2,301753,195,-1864,-419,-1025,-579,-328,395,129,-315
2,301759,198,-1864,-419,-1019,-580,-333,395,129,-315
2,301764,198,-1864,-419,-1019,-580,-333,395,129,-315
2,301769,198,-1864,-419,-1019,-580,-333,395,129,-315
2,301774,198,-1864,-419,-1019,-580,-333,395,129,-315
2,301779,197,-1867,-412,-1021,-574,-325,399,133,-315
2,301786,197,-1867,-412,-1021,-574,-325,399,133,-315
2,301791,197,-1867,-412,-1021,-574,-325,399,133,-315
2,301796,197,-1867,-412,-1021,-574,-325,399,133,-315
2,301802,194,-1867,-420,-1017,-581,-326,399,133,-315
2,301808,194,-1867,-420,-1017,-581,-326,399,133,-315
2,301813,194,-1867,-420,-1017,-581,-326,399,133,-315
2,301819,195,-1870,-418,-1022,-586,-321,399,133,-315
2,301825,195,-1870,-418,-1022,-586,-321,399,133,-315
2,301831,195,-1870,-418,-1022,-586,-321,399,133,-315
2,301836,195,-1870,-418,-1022,-586,-321,399,133,-315
2,301842,195,-1869,-418,-1029,-581,-329,399,133,-315
2,301848,195,-1869,-418,-1029,-581,-329,399,133,-315
2,301853,195,-1869,-418,-1029,-581,-329,399,133,-315
2,301859,193,-1871,-418,-1032,-581,-326,399,133,-315
2,301864,193,-1871,-418,-1032,-581,-326,399,133,-315
2,301871,193,-1871,-418,-1032,-581,-326,399,133,-315
2,301876,193,-1871,-418,-1032,-581,-326,399,133,-315
2,301881,197,-1869,-417,-1025,-577,-329,399,133,-315
2,301887,197,-1869,-417,-1025,-577,-329,399,133,-315
2,301892,197,-1869,-417,-1025,-577,-329,399,133,-315
2,301897,194,-1869,-411,-1018,-575,-322,399,133,-315
2,301902,194,-1869,-411,-1018,-575,-322,390,122,-318
2,301908,194,-1869,-411,-1018,-575,-322,390,122,-318
2,301914,194,-1869,-411,-1018,-575,-322,390,122,-318
2,301920,194,-1867,-410,-1016,-579,-320,390,122,-318
2,301925,194,-1867,-410,-1016,-579,-320,390,122,-318
2,301931,194,-1867,-410,-1016,-579,-320,390,122,-318
2,301936,194,-1867,-410,-1016,-579,-320,390,122,-318
2,301941,193,-1871,-412,-1017,-581,-324,390,122,-318
2,301946,193,-1871,-412,-1017,-581,-324,390,122,-318
2,301953,193,-1871,-412,-1017,-581,-324,390,122,-318
2,301959,195,-1868,-410,-1025,-583,-336,390,122,-318
2,301964,195,-1868,-410,-1025,-583,-336,390,122,-318
2,301969,195,-1868,-410,-1025,-583,-336,390,122,-318
2,301974,195,-1868,-410,-1025,-583,-336,390,122,-318
2,301979,193,-1869,-414,-1027,-580,-323,390,122,-318
2,301984,193,-1869,-414,-1027,-580,-323,390,122,-318
2,301990,193,-1869,-414,-1027,-580,-323,390,122,-318
2,301997,193,-1869,-414,-1027,-580,-323,390,122,-318
2,302002,196,-1870,-415,-1031,-577,-318,390,122,-318
2,302008,196,-1870,-415,-1031,-577,-318,390,122,-318
2,302013,196,-1870,-415,-1031,-577,-318,390,122,-318
2,302019,193,-1868,-415,-1032,-580,-325,393,125,-319
2,302023,193,-1868,-415,-1032,-580,-325,393,125,-319
2,302029,193,-1868,-415,-1032,-580,-325,393,125,-319
2,302034,193,-1868,-415,-1032,-580,-325,393,125,-319
2,302041,189,-1872,-416,-1022,-581,-323,393,125,-319
2,302047,189,-1872,-416,-1022,-581,-323,393,125,-319
2,302052,189,-1872,-416,-1022,-581,-323,393,125,-319
2,302058,193,-1869,-413,-1024,-580,-325,393,125,-319
2,302064,193,-1869,-413,-1024,-580,-325,393,125,-319
2,302069,193,-1869,-413,-1024,-580,-325,393,125,-319
2,302076,193,-1869,-413,-1024,-580,-325,393,125,-319
2,302082,196,-1869,-414,-1019,-578,-328,393,125,-319
2,302087,196,-1869,-414,-1019,-578,-328,393,125,-319
2,302093,196,-1869,-414,-1019,-578,-328,393,125,-319
2,302098,195,-1869,-417,-1025,-581,-326,393,125,-319
2,302103,195,-1869,-417,-1025,-581,-326,393,125,-319
2,302108,195,-1869,-417,-1025,-581,-326,393,125,-319
2,302113,195,-1869,-417,-1025,-581,-326,393,125,-319
2,302119,193,-1867,-423,-1034,-583,-330,393,125,-319
2,302125,193,-1867,-423,-1034,-583,-330,393,125,-319
2,302130,193,-1867,-423,-1034,-583,-330,393,125,-319
2,302135,193,-1867,-423,-1034,-583,-330,393,125,-319
2,302140,195,-1868,-413,-1030,-577,-332,393,125,-319
2,302145,195,-1868,-413,-1030,-577,-332,393,125,-319
2,302150,195,-1868,-413,-1030,-577,-332,393,125,-319
2,302155,195,-1868,-413,-1030,-577,-332,393,125,-319
2,302160,196,-1868,-415,-1030,-590,-327,387,123,-313
2,302166,196,-1868,-415,-1030,-590,-327,387,123,-313
2,302172,196,-1868,-415,-1030,-590,-327,387,123,-313
2,302177,196,-1868,-415,-1030,-590,-327,387,123,-313
2,302182,193,-1865,-411,-1020,-581,-324,387,123,-313
2,302188,193,-1865,-411,-1020,-581,-324,387,123,-313
2,302193,193,-1865,-411,-1020,-581,-324,387,123,-313
2,302199,192,-1868,-416,-1023,-583,-323,387,123,-313
2,302204,192,-1868,-416,-1023,-583,-323,387,123,-313
2,302210,192,-1868,-416,-1023,-583,-323,387,123,-313
2,302215,192,-1868,-416,-1023,-583,-323,387,123,-313
2,302221,191,-1865,-421,-1025,-570,-325,387,123,-313
2,302226,191,-1865,-421,-1025,-570,-325,387,123,-313
2,302232,191,-1865,-421,-1025,-570,-325,387,123,-313
2,302238,196,-1869,-415,-1025,-574,-323,387,123,-313
2,302243,196,-1869,-415,-1025,-574,-323,387,123,-313
2,302248,196,-1869,-415,-1025,-574,-323,387,123,-313
2,302254,196,-1869,-415,-1025,-574,-323,387,123,-313
2,302260,191,-1871,-420,-1024,-568,-329,387,123,-313
2,302265,191,-1871,-420,-1024,-568,-329,387,123,-313
2,302270,191,-1871,-420,-1024,-568,-329,387,123,-313
2,302275,191,-1871,-420,-1024,-568,-329,387,123,-313
2,302280,195,-1866,-415,-1019,-574,-318,393,131,-325
2,302285,195,-1866,-415,-1019,-574,-318,393,131,-325
2,302291,195,-1866,-415,-1019,-574,-318,393,131,-325
2,302297,195,-1866,-415,-1019,-574,-318,393,131,-325
2,302303,193,-1867,-418,-1026,-584,-325,393,131,-325
2,302308,193,-1867,-418,-1026,-584,-325,393,131,-325
2,302314,193,-1867,-418,-1026,-584,-325,393,131,-325
2,302319,192,-1868,-417,-1031,-584,-328,393,131,-325
2,302325,192,-1868,-417,-1031,-584,-328,393,131,-325
2,302330,192,-1868,-417,-1031,-584,-328,393,131,-325
2,302336,192,-1868,-417,-1031,-584,-328,393,131,-325
2,302341,193,-1868,-422,-1032,-592,-329,393,131,-325
2,302346,193,-1868,-422,-1032,-592,-329,393,131,-325
2,302352,193,-1868,-422,-1032,-592,-329,393,131,-325
2,302357,193,-1868,-422,-1032,-592,-329,393,131,-325
2,302362,196,-1871,-418,-1020,-583,-325,393,131,-325
2,302368,196,-1871,-418,-1020,-583,-325,393,131,-325
2,302373,196,-1871,-418,-1020,-583,-325,393,131,-325
2,302379,194,-1865,-417,-1023,-582,-325,393,131,-325
2,302385,194,-1865,-417,-1023,-582,-325,393,131,-325
2,302390,194,-1865,-417,-1023,-582,-325,393,131,-325
2,302396,194,-1865,-417,-1023,-582,-325,393,131,-325
2,302401,197,-1868,-417,-1021,-580,-328,393,131,-325
2,302406,197,-1868,-417,-1021,-580,-328,393,131,-325
2,302412,197,-1868,-417,-1021,-580,-328,393,131,-325
2,302417,197,-1868,-417,-1021,-580,-328,393,131,-325
2,302423,197,-1870,-411,-1026,-576,-330,396,126,-322
2,302428,197,-1870,-411,-1026,-576,-330,396,126,-322
2,302434,197,-1870,-411,-1026,-576,-330,396,126,-322
2,302439,198,-1866,-415,-1024,-577,-333,396,126,-322
2,302444,198,-1866,-415,-1024,-577,-333,396,126,-322
2,302449,198,-1866,-415,-1024,-577,-333,396,126,-322
2,302455,198,-1866,-415,-1024,-577,-333,396,126,-322
2,302460,194,-1868,-418,-1015,-575,-317,396,126,-322
2,302466,194,-1868,-418,-1015,-575,-317,396,126,-322
2,302472,194,-1868,-418,-1015,-575,-317,396,126,-322
2,302477,194,-1868,-418,-1015,-575,-317,396,126,-322
2,302482,194,-1872,-413,-1023,-577,-332,396,126,-322
2,302487,194,-1872,-413,-1023,-577,-332,396,126,-322
2,302493,194,-1872,-413,-1023,-577,-332,396,126,-322
2,302498,192,-1869,-422,-1018,-574,-330,396,126,-322
2,302503,192,-1869,-422,-1018,-574,-330,396,126,-322
2,302510,192,-1869,-422,-1018,-574,-330,396,126,-322
2,302515,192,-1869,-422,-1018,-574,-330,396,126,-322
2,302520,192,-1871,-422,-1020,-579,-328,396,126,-322
2,302526,192,-1871,-422,-1020,-579,-328,396,126,-322
2,302531,192,-1871,-422,-1020,-579,-328,396,126,-322
2,302536,192,-1871,-422,-1020,-579,-328,396,126,-322
2,302541,193,-1867,-415,-1026,-580,-326,399,123,-317
2,302547,193,-1867,-415,-1026,-580,-326,399,123,-317
2,302553,193,-1867,-415,-1026,-580,-326,399,123,-317
2,302559,198,-1867,-411,-1027,-584,-322,399,123,-317
2,302563,198,-1867,-411,-1027,-584,-322,399,123,-317
2,302569,198,-1867,-411,-1027,-584,-322,399,123,-317
2,302575,198,-1867,-411,-1027,-584,-322,399,123,-317
2,302580,193,-1868,-410,-1025,-582,-328,399,123,-317
2,302585,193,-1868,-410,-1025,-582,-328,399,123,-317
2,302592,193,-1868,-410,-1025,-582,-328,399,123,-317
2,302597,193,-1868,-410,-1025,-582,-328,399,123,-317
2,302603,198,-1866,-416,-1022,-577,-324,399,123,-317
2,302607,198,-1866,-416,-1022,-577,-324,399,123,-317
2,302613,198,-1866,-416,-1022,-577,-324,399,123,-317
2,302618,197,-1869,-415,-1024,-583,-322,399,123,-317
2,302623,197,-1869,-415,-1024,-583,-322,399,123,-317
2,302628,197,-1869,-415,-1024,-583,-322,399,123,-317
2,302633,197,-1869,-415,-1024,-583,-322,399,123,-317
2,302640,194,-1871,-414,-1022,-585,-326,399,123,-317
2,302645,194,-1871,-414,-1022,-585,-326,399,123,-317
2,302650,194,-1871,-414,-1022,-585,-326,399,123,-317
2,302655,194,-1871,-414,-1022,-585,-326,399,123,-317
2,302661,195,-1870,-413,-1026,-582,-335,400,134,-324
2,302666,195,-1870,-413,-1026,-582,-335,400,134,-324
2,302671,195,-1870,-413,-1026,-582,-335,400,134,-324
2,302678,195,-1870,-413,-1026,-582,-335,400,134,-324
2,302683,193,-1870,-413,-1025,-580,-329,400,134,-324
2,302690,193,-1870,-413,-1025,-580,-329,400,134,-324
2,302697,193,-1870,-413,-1025,-580,-329,400,134,-324
2,302704,193,-1870,-413,-1022,-580,-325,400,134,-324
2,302710,193,-1870,-413,-1022,-580,-325,400,134,-324
2,302715,193,-1870,-413,-1022,-580,-325,400,134,-324
2,302721,193,-1869,-419,-1027,-580,-325,400,134,-324
2,302726,193,-1869,-419,-1027,-580,-325,400,134,-324
2,302732,193,-1869,-419,-1027,-580,-325,400,134,-324
2,302737,193,-1869,-419,-1027,-580,-325,400,134,-324
2,302743,197,-1869,-421,-1027,-575,-324,400,134,-324
2,302748,197,-1869,-421,-1027,-575,-324,400,134,-324
2,302754,197,-1869,-421,-1027,-575,-324,400,134,-324
2,302759,194,-1869,-411,-1019,-579,-325,400,134,-324
2,302765,194,-1869,-411,-1019,-579,-325,400,134,-324
2,302770,194,-1869,-411,-1019,-579,-325,400,134,-324
2,302776,194,-1869,-411,-1019,-579,-325,400,134,-324
2,302781,191,-1870,-423,-1013,-579,-329,400,134,-324
2,302787,191,-1870,-423,-1013,-579,-329,400,134,-324
2,302792,191,-1870,-423,-1013,-579,-329,400,134,-324
2,302798,191,-1870,-423,-1013,-579,-329,400,134,-324
2,302802,195,-1868,-415,-1022,-577,-335,397,131,-319
2,302809,195,-1868,-415,-1022,-577,-335,397,131,-319
2,302814,195,-1868,-415,-1022,-577,-335,397,131,-319
2,302820,194,-1866,-417,-1020,-581,-334,397,131,-319
2,302825,194,-1866,-417,-1020,-581,-334,397,131,-319
2,302831,194,-1866,-417,-1020,-581,-334,397,131,-319
2,302837,194,-1866,-417,-1020,-581,-334,397,131,-319
2,302842,192,-1869,-420,-1027,-585,-324,397,131,-319
2,302849,192,-1869,-420,-1027,-585,-324,397,131,-319
2,302854,192,-1869,-420,-1027,-585,-324,397,131,-319
2,302860,194,-1866,-417,-1030,-585,-325,397,131,-319
2,302864,194,-1866,-417,-1030,-585,-325,397,131,-319
2,302870,194,-1866,-417,-1030,-585,-325,397,131,-319
2,302875,194,-1866,-417,-1030,-585,-325,397,131,-319
2,302881,190,-1866,-416,-1021,-581,-321,397,131,-319
2,302886,190,-1866,-416,-1021,-581,-321,397,131,-319
2,302892,190,-1866,-416,-1021,-581,-321,397,131,-319
2,302898,190,-1866,-416,-1021,-581,-321,397,131,-319
2,302903,192,-1865,-418,-1025,-582,-327,397,131,-319
2,302909,192,-1865,-418,-1025,-582,-327,397,131,-319
2,302915,192,-1865,-418,-1025,-582,-327,397,131,-319
2,302922,191,-1867,-418,-1019,-579,-333,399,127,-325
2,302927,191,-1867,-418,-1019,-579,-333,399,127,-325
2,302934,191,-1867,-418,-1019,-579,-333,399,127,-325
2,302939,194,-1868,-415,-1032,-576,-333,399,127,-325
2,302944,194,-1868,-415,-1032,-576,-333,399,127,-325
2,302949,194,-1868,-415,-1032,-576,-333,399,127,-325
2,302955,194,-1868,-415,-1032,-576,-333,399,127,-325
2,302960,197,-1866,-412,-1022,-576,-333,399,127,-325
2,302965,197,-1866,-412,-1022,-576,-333,399,127,-325
2,302969,197,-1866,-412,-1022,-576,-333,399,127,-325
2,302976,197,-1866,-412,-1022,-576,-333,399,127,-325
2,302981,193,-1870,-411,-1016,-575,-329,399,127,-325
2,302986,193,-1870,-411,-1016,-575,-329,399,127,-325
2,302991,193,-1870,-411,-1016,-575,-329,399,127,-325
2,302997,193,-1870,-411,-1016,-575,-329,399,127,-325
2,303003,192,-1870,-413,-1020,-580,-324,399,127,-325
2,303009,192,-1870,-413,-1020,-580,-324,399,127,-325
2,303013,192,-1870,-413,-1020,-580,-324,399,127,-325
2,303020,192,-1870,-418,-1020,-580,-324,399,127,-325
2,303026,192,-1870,-418,-1020,-580,-324,399,127,-325
2,303031,192,-1870,-418,-1020,-580,-324,399,127,-325
2,303037,192,-1870,-418,-1020,-580,-324,399,127,-325
2,303043,193,-1871,-418,-1019,-580,-324,399,127,-325
2,303048,193,-1871,-418,-1019,-580,-324,399,127,-325
2,303053,193,-1871,-418,-1019,-580,-324,399,127,-325
2,303059,194,-1866,-416,-1029,-578,-324,396,124,-320
2,303065,194,-1866,-416,-1029,-578,-324,396,124,-320
2,303070,194,-1866,-416,-1029,-578,-324,396,124,-320
2,303076,194,-1866,-416,-1029,-578,-324,396,124,-320
2,303081,194,-1869,-416,-1025,-581,-317,396,124,-320
2,303086,194,-1869,-416,-1025,-581,-317,396,124,-320
2,303092,194,-1869,-416,-1025,-581,-317,396,124,-320
2,303097,194,-1869,-416,-1025,-581,-317,396,124,-320
2,303102,197,-1867,-417,-1016,-583,-328,396,124,-320
2,303109,197,-1867,-417,-1016,-583,-328,396,124,-320
2,303114,197,-1867,-417,-1016,-583,-328,396,124,-320
2,303119,197,-1869,-415,-1021,-587,-323,396,124,-320
2,303125,197,-1869,-415,-1021,-587,-323,396,124,-320
2,303130,197,-1869,-415,-1021,-587,-323,396,124,-320
2,303136,197,-1869,-415,-1021,-587,-323,396,124,-320
2,303141,198,-1871,-413,-1022,-589,-325,396,124,-320
2,303148,198,-1871,-413,-1022,-589,-325,396,124,-320
2,303153,198,-1871,-413,-1022,-589,-325,396,124,-320
2,303159,195,-1871,-414,-1016,-583,-321,396,124,-320
2,303164,195,-1871,-414,-1016,-583,-321,396,124,-320
2,303170,195,-1871,-414,-1016,-583,-321,396,124,-320
2,303175,195,-1871,-414,-1016,-583,-321,396,124,-320
2,303180,197,-1869,-414,-1023,-581,-325,401,129,-319
2,303186,197,-1869,-414,-1023,-581,-325,401,129,-319
2,303192,197,-1869,-414,-1023,-581,-325,401,129,-319
2,303197,197,-1869,-414,-1023,-581,-325,401,129,-319
2,303203,194,-1867,-417,-1019,-578,-325,401,129,-319
2,303208,194,-1867,-417,-1019,-578,-325,401,129,-319
2,303213,194,-1867,-417,-1019,-578,-325,401,129,-319
2,303219,195,-1868,-411,-1019,-582,-321,401,129,-319
2,303224,195,-1868,-411,-1019,-582,-321,401,129,-319
2,303229,195,-1868,-411,-1019,-582,-321,401,129,-319
2,303235,195,-1868,-411,-1019,-582,-321,401,129,-319
2,303241,199,-1870,-414,-1022,-577,-324,401,129,-319
2,303246,199,-1870,-414,-1022,-577,-324,401,129,-319
2,303252,199,-1870,-414,-1022,-577,-324,401,129,-319
2,303258,199,-1870,-414,-1022,-577,-324,401,129,-319
2,303263,194,-1867,-417,-1020,-578,-322,401,129,-319
2,303268,194,-1867,-417,-1020,-578,-322,401,129,-319
2,303275,194,-1867,-417,-1020,-578,-322,401,129,-319
2,303280,193,-1866,-419,-1017,-580,-323,401,129,-319
2,303286,193,-1866,-419,-1017,-580,-323,401,129,-319
2,303292,193,-1866,-419,-1017,-580,-323,401,129,-319
2,303298,193,-1866,-419,-1017,-580,-323,401,129,-319
2,303303,193,-1870,-415,-1023,-577,-326,397,123,-323
2,303309,193,-1870,-415,-1023,-577,-326,397,123,-323
2,303314,193,-1870,-415,-1023,-577,-326,397,123,-323
2,303321,196,-1867,-408,-1017,-579,-327,397,123,-323
2,303326,196,-1867,-408,-1017,-579,-327,397,123,-323
2,303332,196,-1867,-408,-1017,-579,-327,397,123,-323
2,303337,196,-1867,-408,-1017,-579,-327,397,123,-323
2,303343,195,-1869,-416,-1019,-579,-327,397,123,-323
2,303348,195,-1869,-416,-1019,-579,-327,397,123,-323
2,303353,195,-1869,-416,-1019,-579,-327,397,123,-323
2,303360,194,-1866,-420,-1019,-569,-325,397,123,-323
2,303365,194,-1866,-420,-1019,-569,-325,397,123,-323
2,303370,194,-1866,-420,-1019,-569,-325,397,123,-323
2,303376,194,-1866,-420,-1019,-569,-325,397,123,-323
2,303381,195,-1866,-420,-1028,-580,-331,397,123,-323
2,303386,195,-1866,-420,-1028,-580,-331,397,123,-323
2,303392,195,-1866,-420,-1028,-580,-331,397,123,-323
2,303397,195,-1866,-420,-1028,-580,-331,397,123,-323
2,303404,195,-1871,-413,-1018,-574,-333,397,123,-323
2,303409,195,-1871,-413,-1018,-574,-333,397,123,-323
2,303414,195,-1871,-413,-1018,-574,-333,397,123,-323
2,303419,195,-1871,-413,-1018,-574,-333,397,123,-323
2,303424,194,-1870,-417,-1022,-577,-328,397,123,-323
2,303429,194,-1870,-417,-1022,-577,-328,397,123,-323
2,303434,194,-1870,-417,-1022,-577,-328,397,123,-323
2,303440,198,-1868,-414,-1017,-583,-329,392,126,-320
2,303446,198,-1868,-414,-1017,-583,-329,392,126,-320
2,303452,198,-1868,-414,-1017,-583,-329,392,126,-320
2,303457,198,-1868,-414,-1017,-583,-329,392,126,-320
2,303462,194,-1869,-417,-1016,-584,-332,392,126,-320
2,303468,194,-1869,-417,-1016,-584,-332,392,126,-320
2,303473,194,-1869,-417,-1016,-584,-332,392,126,-320
2,303478,194,-1869,-417,-1016,-584,-332,392,126,-320
2,303483,191,-1870,-417,-1018,-578,-325,392,126,-320
2,303490,191,-1870,-417,-1018,-578,-325,392,126,-320
2,303495,191,-1870,-417,-1018,-578,-325,392,126,-320
2,303500,194,-1868,-423,-1019,-583,-323,392,126,-320
2,303505,194,-1868,-423,-1019,-583,-323,392,126,-320
2,303511,194,-1868,-423,-1019,-583,-323,392,126,-320
2,303516,194,-1868,-423,-1019,-583,-323,392,126,-320
2,303522,194,-1868,-419,-1024,-582,-327,392,126,-320
2,303527,194,-1868,-419,-1024,-582,-327,392,126,-320
2,303534,194,-1868,-419,-1024,-582,-327,392,126,-320
2,303540,194,-1865,-414,-1024,-575,-327,392,126,-320
2,303545,194,-1865,-414,-1024,-575,-327,392,126,-320
2,303551,194,-1865,-414,-1024,-575,-327,392,126,-320
2,303556,194,-1865,-414,-1024,-575,-327,392,126,-320
2,303562,192,-1866,-415,-1030,-581,-323,402,134,-322
2,303567,192,-1866,-415,-1030,-581,-323,402,134,-322
2,303572,192,-1866,-415,-1030,-581,-323,402,134,-322
2,303578,192,-1866,-415,-1030,-581,-323,402,134,-322
2,303584,194,-1870,-412,-1034,-582,-324,402,134,-322
2,303589,194,-1870,-412,-1034,-582,-324,402,134,-322
2,303594,194,-1870,-412,-1034,-582,-324,402,134,-322
2,303599,196,-1869,-416,-1019,-583,-318,402,134,-322
2,303604,196,-1869,-416,-1019,-583,-318,402,134,-322
2,303610,196,-1869,-416,-1019,-583,-318,402,134,-322
2,303616,196,-1869,-416,-1019,-583,-318,402,134,-322
2,303622,195,-1870,-419,-1027,-583,-323,402,134,-322
2,303627,195,-1870,-419,-1027,-583,-323,402,134,-322
2,303632,195,-1870,-419,-1027,-583,-323,402,134,-322
2,303637,195,-1870,-419,-1027,-583,-323,402,134,-322
2,303643,191,-1866,-421,-1021,-581,-323,402,134,-322
2,303648,191,-1866,-421,-1021,-581,-323,402,134,-322
2,303654,191,-1866,-421,-1021,-581,-323,402,134,-322
2,303660,197,-1865,-417,-1026,-578,-320,402,134,-322
2,303666,197,-1865,-417,-1026,-578,-320,402,134,-322
2,303670,197,-1865,-417,-1026,-578,-320,402,134,-322
2,303676,197,-1865,-417,-1026,-578,-320,402,134,-322
2,303681,198,-1869,-421,-1026,-579,-329,402,134,-322
2,303686,198,-1869,-421,-1026,-579,-329,402,134,-322
2,303691,198,-1869,-421,-1026,-579,-329,402,134,-322
2,303696,198,-1869,-421,-1026,-579,-329,402,134,-322
2,303703,195,-1865,-416,-1026,-582,-329,398,122,-320
2,303708,195,-1865,-416,-1026,-582,-329,398,122,-320
2,303714,195,-1865,-416,-1026,-582,-329,398,122,-320
2,303720,193,-1867,-414,-1028,-579,-334,398,122,-320
2,303725,193,-1867,-414,-1028,-579,-334,398,122,-320
2,303730,193,-1867,-414,-1028,-579,-334,398,122,-320
2,303735,193,-1867,-414,-1028,-579,-334,398,122,-320
2,303741,194,-1872,-420,-1028,-585,-330,398,122,-320
2,303747,194,-1872,-420,-1028,-585,-330,398,122,-320
2,303753,194,-1872,-420,-1028,-585,-330,398,122,-320
2,303758,194,-1872,-420,-1028,-585,-330,398,122,-320
2,303764,196,-1867,-420,-1022,-583,-326,398,122,-320
2,303769,196,-1867,-420,-1022,-583,-326,398,122,-320
2,303775,196,-1867,-420,-1022,-583,-326,398,122,-320
2,303780,197,-1867,-417,-1036,-592,-338,398,122,-320
2,303785,197,-1867,-417,-1036,-592,-338,398,122,-320
2,303791,197,-1867,-417,-1036,-592,-338,398,122,-320
2,303797,197,-1867,-417,-1036,-592,-338,398,122,-320
2,303802,194,-1867,-419,-1026,-587,-323,398,122,-320
2,303808,194,-1867,-419,-1026,-587,-323,398,122,-320
2,303813,194,-1867,-419,-1026,-587,-323,398,122,-320
2,303819,194,-1867,-419,-1026,-587,-323,398,122,-320
2,303824,195,-1870,-417,-1025,-586,-322,398,130,-318
2,303830,195,-1870,-417,-1025,-586,-322,398,130,-318
2,303836,195,-1870,-417,-1025,-586,-322,398,130,-318
2,303842,194,-1869,-418,-1030,-582,-322,398,130,-318
2,303847,194,-1869,-418,-1030,-582,-322,398,130,-318
2,303852,194,-1869,-418,-1030,-582,-322,398,130,-318
2,303858,194,-1869,-418,-1030,-582,-322,398,130,-318
2,303863,195,-1872,-417,-1027,-579,-329,398,130,-318
2,303869,195,-1872,-417,-1027,-579,-329,398,130,-318
2,303875,195,-1872,-417,-1027,-579,-329,398,130,-318
2,303881,195,-1870,-421,-1023,-578,-333,398,130,-318
2,303886,195,-1870,-421,-1023,-578,-333,398,130,-318
2,303891,195,-1870,-421,-1023,-578,-333,398,130,-318
2,303896,195,-1870,-421,-1023,-578,-333,398,130,-318
2,303902,196,-1869,-418,-1023,-580,-327,398,130,-318
2,303907,196,-1869,-418,-1023,-580,-327,398,130,-318
2,303912,196,-1869,-418,-1023,-580,-327,398,130,-318
2,303918,196,-1869,-418,-1023,-580,-327,398,130,-318
2,303924,192,-1867,-418,-1027,-583,-331,398,130,-318
2,303929,192,-1867,-418,-1027,-583,-331,398,130,-318
2,303933,192,-1867,-418,-1027,-583,-331,398,130,-318
2,303938,192,-1867,-418,-1027,-583,-331,398,130,-318
2,303943,193,-1868,-418,-1026,-583,-325,398,130,-318
2,303949,193,-1868,-418,-1026,-583,-325,398,130,-318
2,303954,193,-1868,-418,-1026,-583,-325,398,130,-318
2,303960,192,-1866,-416,-1027,-574,-320,398,130,-318
2,303966,192,-1866,-416,-1027,-574,-320,398,130,-318
2,303971,192,-1866,-416,-1027,-574,-320,398,130,-318
2,303977,192,-1866,-416,-1027,-574,-320,398,130,-318
2,303982,196,-1870,-420,-1023,-571,-323,398,130,-318
2,303988,196,-1870,-420,-1023,-571,-323,398,130,-318
2,303994,196,-1870,-420,-1023,-571,-323,398,130,-318
2,304000,196,-1870,-420,-1023,-571,-323,398,130,-318
2,304005,196,-1869,-424,-1029,-577,-332,398,130,-318
2,304010,196,-1869,-424,-1029,-577,-332,398,130,-318
2,304015,196,-1869,-424,-1029,-577,-332,398,130,-318
2,304021,197,-1869,-415,-1032,-579,-336,398,130,-318
2,304026,197,-1869,-415,-1032,-579,-336,398,130,-318
2,304032,197,-1869,-415,-1032,-579,-336,398,130,-318
2,304037,197,-1869,-415,-1032,-579,-336,398,130,-318
2,304043,195,-1865,-419,-1030,-579,-326,398,130,-318
2,304048,195,-1865,-419,-1030,-579,-326,398,130,-318
2,304054,195,-1865,-419,-1030,-579,-326,398,130,-318
2,304059,195,-1865,-419,-1030,-579,-326,398,130,-318
2,304065,197,-1868,-418,-1037,-582,-331,398,130,-318
2,304070,197,-1868,-418,-1037,-582,-331,398,130,-318
2,304075,197,-1868,-418,-1037,-582,-331,398,130,-318
2,304080,195,-1869,-407,-1027,-585,-322,399,127,-315
2,304087,195,-1869,-407,-1027,-585,-322,399,127,-315
2,304092,195,-1869,-407,-1027,-585,-322,399,127,-315
2,304098,195,-1869,-407,-1027,-585,-322,399,127,-315
2,304103,193,-1865,-416,-1027,-586,-330,399,127,-315
2,304108,193,-1865,-416,-1027,-586,-330,399,127,-315
2,304114,193,-1865,-416,-1027,-586,-330,399,127,-315
2,304119,193,-1865,-416,-1027,-586,-330,399,127,-315
2,304124,195,-1865,-418,-1023,-581,-322,399,127,-315
2,304131,195,-1865,-418,-1023,-581,-322,399,127,-315
2,304136,195,-1865,-418,-1023,-581,-322,399,127,-315
2,304142,194,-1868,-417,-1027,-581,-324,399,127,-315
2,304148,194,-1868,-417,-1027,-581,-324,399,127,-315
2,304154,194,-1868,-417,-1027,-581,-324,399,127,-315
2,304159,194,-1868,-417,-1027,-581,-324,399,127,-315
2,304164,196,-1866,-416,-1028,-579,-330,399,127,-315
2,304169,196,-1866,-416,-1028,-579,-330,399,127,-315
2,304175,196,-1866,-416,-1028,-579,-330,399,127,-315
2,304181,198,-1868,-415,-1023,-580,-330,399,127,-315
2,304186,198,-1868,-415,-1023,-580,-330,399,127,-315
2,304192,198,-1868,-415,-1023,-580,-330,399,127,-315
2,304197,198,-1868,-415,-1023,-580,-330,399,127,-315
2,304202,192,-1866,-414,-1024,-581,-325,395,127,-321
2,304208,192,-1866,-414,-1024,-581,-325,395,127,-321
2,304214,192,-1866,-414,-1024,-581,-325,395,127,-321
2,304219,192,-1866,-414,-1024,-581,-325,395,127,-321
2,304225,197,-1869,-413,-1028,-582,-326,395,127,-321
2,304230,197,-1869,-413,-1028,-582,-326,395,127,-321
2,304236,197,-1869,-413,-1028,-582,-326,395,127,-321
2,304241,196,-1868,-414,-1021,-581,-325,395,127,-321
2,304246,196,-1868,-414,-1021,-581,-325,395,127,-321
2,304252,196,-1868,-414,-1021,-581,-325,395,127,-321
2,304258,196,-1868,-414,-1021,-581,-325,395,127,-321
2,304263,194,-1867,-425,-1022,-582,-329,395,127,-321
2,304269,194,-1867,-425,-1022,-582,-329,395,127,-321
2,304274,194,-1867,-425,-1022,-582,-329,395,127,-321
2,304280,194,-1867,-425,-1022,-582,-329,395,127,-321
2,304285,195,-1868,-422,-1025,-582,-329,395,127,-321
2,304290,195,-1868,-422,-1025,-582,-329,395,127,-321
2,304296,195,-1868,-422,-1025,-582,-329,395,127,-321
2,304302,195,-1867,-418,-1024,-577,-325,395,127,-321
2,304308,195,-1867,-418,-1024,-577,-325,395,127,-321
2,304314,195,-1867,-418,-1024,-577,-325,395,127,-321
2,304319,195,-1867,-418,-1024,-577,-325,395,127,-321
2,304325,195,-1869,-415,-1025,-577,-328,395,127,-321
2,304330,195,-1869,-415,-1025,-577,-328,395,127,-321
2,304335,195,-1869,-415,-1025,-577,-328,395,127,-321
2,304342,194,-1869,-408,-1018,-577,-327,396,122,-324
2,304347,194,-1869,-408,-1018,-577,-327,396,122,-324
2,304352,194,-1869,-408,-1018,-577,-327,396,122,-324
2,304357,194,-1869,-408,-1018,-577,-327,396,122,-324
2,304362,192,-1869,-418,-1025,-576,-330,396,122,-324
2,304368,192,-1869,-418,-1025,-576,-330,396,122,-324
2,304373,192,-1869,-418,-1025,-576,-330,396,122,-324
2,304378,192,-1869,-418,-1025,-576,-330,396,122,-324
2,304384,194,-1869,-415,-1025,-578,-326,396,122,-324
2,304389,194,-1869,-415,-1025,-578,-326,396,122,-324
2,304394,194,-1869,-415,-1025,-578,-326,396,122,-324
2,304400,194,-1869,-415,-1025,-578,-326,396,122,-324
2,304405,198,-1867,-416,-1022,-575,-328,396,122,-324
2,304410,198,-1867,-416,-1022,-575,-328,396,122,-324
2,304415,198,-1867,-416,-1022,-575,-328,396,122,-324
2,304420,197,-1868,-422,-1021,-581,-325,396,122,-324
2,304427,197,-1868,-422,-1021,-581,-325,396,122,-324
2,304432,197,-1868,-422,-1021,-581,-325,396,122,-324
2,304438,197,-1868,-422,-1021,-581,-325,396,122,-324
2,304443,196,-1867,-416,-1024,-586,-333,396,122,-324
2,304448,196,-1867,-416,-1024,-586,-333,396,122,-324
2,304454,196,-1867,-416,-1024,-586,-333,396,122,-324
2,304459,196,-1867,-416,-1024,-586,-333,396,122,-324
2,304464,195,-1868,-416,-1026,-573,-326,400,136,-316
2,304471,195,-1868,-416,-1026,-573,-326,400,136,-316
2,304476,195,-1868,-416,-1026,-573,-326,400,136,-316
2,304482,194,-1871,-414,-1020,-579,-333,400,136,-316
2,304487,194,-1871,-414,-1020,-579,-333,400,136,-316
2,304492,194,-1871,-414,-1020,-579,-333,400,136,-316
2,304497,194,-1871,-414,-1020,-579,-333,400,136,-316
2,304503,192,-1868,-415,-1023,-576,-325,400,136,-316
2,304508,192,-1868,-415,-1023,-576,-325,400,136,-316
2,304514,192,-1868,-415,-1023,-576,-325,400,136,-316
2,304520,192,-1868,-415,-1023,-576,-325,400,136,-316
2,304525,193,-1868,-418,-1022,-579,-338,400,136,-316
2,304531,193,-1868,-418,-1022,-579,-338,400,136,-316
2,304536,193,-1868,-418,-1022,-579,-338,400,136,-316
2,304541,195,-1868,-421,-1028,-585,-331,400,136,-316
2,304547,195,-1868,-421,-1028,-585,-331,400,136,-316
2,304552,195,-1868,-421,-1028,-585,-331,400,136,-316
2,304559,195,-1868,-421,-1028,-585,-331,400,136,-316
2,304564,195,-1866,-418,-1027,-585,-332,400,136,-316
2,304570,195,-1866,-418,-1027,-585,-332,400,136,-316
2,304575,195,-1866,-418,-1027,-585,-332,400,136,-316
2,304580,195,-1866,-418,-1027,-585,-332,400,136,-316
2,304586,193,-1868,-420,-1018,-585,-319,400,136,-316
2,304591,193,-1868,-420,-1018,-585,-319,400,136,-316
2,304596,193,-1868,-420,-1018,-585,-319,400,136,-316
2,304603,195,-1868,-416,-1022,-582,-327,393,125,-315
2,304608,195,-1868,-416,-1022,-582,-327,393,125,-315
2,304613,195,-1868,-416,-1022,-582,-327,393,125,-315
2,304619,195,-1868,-416,-1022,-582,-327,393,125,-315
2,304624,196,-1869,-420,-1026,-586,-325,393,125,-315
2,304629,196,-1869,-420,-1026,-586,-325,393,125,-315
2,304635,196,-1869,-420,-1026,-586,-325,393,125,-315
2,304641,196,-1866,-419,-1033,-577,-324,393,125,-315
2,304647,196,-1866,-419,-1033,-577,-324,393,125,-315
2,304652,196,-1866,-419,-1033,-577,-324,393,125,-315
2,304658,196,-1866,-419,-1033,-577,-324,393,125,-315
2,304664,194,-1868,-422,-1029,-577,-323,393,125,-315
2,304669,194,-1868,-422,-1029,-577,-323,393,125,-315
2,304674,194,-1868,-422,-1029,-577,-323,393,125,-315
2,304680,194,-1868,-422,-1029,-577,-323,393,125,-315
2,304686,196,-1869,-419,-1029,-578,-327,393,125,-315
2,304691,196,-1869,-419,-1029,-578,-327,393,125,-315
2,304696,196,-1869,-419,-1029,-578,-327,393,125,-315
2,304702,196,-1870,-419,-1021,-581,-333,393,125,-315
2,304708,196,-1870,-419,-1021,-581,-333,393,125,-315
2,304713,196,-1870,-419,-1021,-581,-333,393,125,-315
2,304718,196,-1870,-419,-1021,-581,-333,393,125,-315
2,304723,192,-1871,-416,-1026,-588,-326,396,128,-324
2,304729,192,-1871,-416,-1026,-588,-326,396,128,-324
2,304735,192,-1871,-416,-1026,-588,-326,396,128,-324
2,304740,192,-1871,-416,-1026,-588,-326,396,128,-324
2,304746,194,-1869,-417,-1023,-587,-326,396,128,-324
2,304751,194,-1869,-417,-1023,-587,-326,396,128,-324
2,304756,194,-1869,-417,-1023,-587,-326,396,128,-324
2,304762,194,-1869,-420,-1030,-578,-326,396,128,-324
2,304768,194,-1869,-420,-1030,-578,-326,396,128,-324
2,304774,194,-1869,-420,-1030,-578,-326,396,128,-324
2,304779,194,-1869,-420,-1030,-578,-326,396,128,-324
2,304784,194,-1869,-417,-1025,-579,-324,396,128,-324
2,304790,194,-1869,-417,-1025,-579,-324,396,128,-324
2,304795,194,-1869,-417,-1025,-579,-324,396,128,-324
2,304800,194,-1869,-417,-1025,-579,-324,396,128,-324
2,304806,194,-1866,-417,-1026,-582,-325,396,128,-324
2,304812,194,-1866,-417,-1026,-582,-325,396,128,-324
2,304818,194,-1866,-417,-1026,-582,-325,396,128,-324
2,304823,195,-1869,-412,-1037,-585,-325,396,128,-324
2,304828,195,-1869,-412,-1037,-585,-325,396,128,-324
2,304834,195,-1869,-412,-1037,-585,-325,396,128,-324
2,304839,195,-1869,-412,-1037,-585,-325,396,128,-324
2,304844,196,-1871,-413,-1027,-581,-328,401,123,-325
2,304850,196,-1871,-413,-1027,-581,-328,401,123,-325
2,304856,196,-1871,-413,-1027,-581,-328,401,123,-325
2,304862,195,-1869,-413,-1028,-578,-330,401,123,-325
2,304867,195,-1869,-413,-1028,-578,-330,401,123,-325
2,304872,195,-1869,-413,-1028,-578,-330,401,123,-325
2,304878,195,-1869,-413,-1028,-578,-330,401,123,-325
2,304883,197,-1870,-421,-1026,-580,-329,401,123,-325
2,304888,197,-1870,-421,-1026,-580,-329,401,123,-325
2,304894,197,-1870,-421,-1026,-580,-329,401,123,-325
2,304900,197,-1870,-421,-1026,-580,-329,401,123,-325
2,304905,198,-1869,-417,-1027,-584,-325,401,123,-325
2,304910,198,-1869,-417,-1027,-584,-325,401,123,-325
2,304915,198,-1869,-417,-1027,-584,-325,401,123,-325
2,304920,198,-1869,-417,-1027,-584,-325,401,123,-325
2,304926,194,-1871,-414,-1025,-580,-327,401,123,-325
2,304931,194,-1871,-414,-1025,-580,-327,401,123,-325
2,304937,194,-1871,-414,-1025,-580,-327,401,123,-325
2,304945,196,-1867,-416,-1029,-576,-328,401,123,-325
2,304950,196,-1867,-416,-1029,-576,-328,401,123,-325
2,304955,196,-1867,-416,-1029,-576,-328,401,123,-325
2,304961,196,-1867,-416,-1029,-576,-328,401,123,-325
2,304966,194,-1868,-412,-1026,-576,-325,401,123,-325
2,304971,194,-1868,-412,-1026,-576,-325,401,123,-325
2,304977,194,-1868,-412,-1026,-576,-325,401,123,-325
2,304983,192,-1869,-414,-1021,-572,-322,389,123,-323
2,304989,192,-1869,-414,-1021,-572,-322,389,123,-323
2,304994,192,-1869,-414,-1021,-572,-322,389,123,-323
2,304999,192,-1869,-414,-1021,-572,-322,389,123,-323
2,305005,193,-1871,-420,-1025,-574,-325,389,123,-323
2,305010,193,-1871,-420,-1025,-574,-325,389,123,-323
2,305015,193,-1871,-420,-1025,-574,-325,389,123,-323
2,305021,193,-1871,-420,-1025,-574,-325,389,123,-323
2,305027,195,-1867,-415,-1034,-581,-327,389,123,-323
2,305033,195,-1867,-415,-1034,-581,-327,389,123,-323
2,305038,195,-1867,-415,-1034,-581,-327,389,123,-323
2,305043,195,-1869,-414,-1028,-584,-327,389,123,-323
2,305049,195,-1869,-414,-1028,-584,-327,389,123,-323
2,305054,195,-1869,-414,-1028,-584,-327,389,123,-323
2,305059,195,-1869,-414,-1028,-584,-327,389,123,-323
2,305064,193,-1868,-418,-1021,-581,-330,389,123,-323
2,305070,193,-1868,-418,-1021,-581,-330,389,123,-323
2,305075,193,-1868,-418,-1021,-581,-330,389,123,-323
2,305080,193,-1868,-418,-1021,-581,-330,389,123,-323
2,305085,194,-1870,-421,-1026,-577,-330,389,123,-323
2,305091,194,-1870,-421,-1026,-577,-330,389,123,-323
2,305096,194,-1870,-421,-1026,-577,-330,389,123,-323
2,305101,193,-1868,-419,-1026,-578,-324,392,120,-322
2,305106,193,-1868,-419,-1026,-578,-324,392,120,-322
2,305113,193,-1868,-419,-1026,-578,-324,392,120,-322
2,305118,193,-1868,-419,-1026,-578,-324,392,120,-322
2,305124,195,-1871,-420,-1035,-591,-320,392,120,-322
2,305129,195,-1871,-420,-1035,-591,-320,392,120,-322
2,305135,195,-1871,-420,-1035,-591,-320,392,120,-322
2,305140,195,-1871,-420,-1035,-591,-320,392,120,-322
2,305145,193,-1869,-410,-1027,-584,-330,392,120,-322
2,305150,193,-1869,-410,-1027,-584,-330,392,120,-322
2,305157,193,-1869,-410,-1027,-584,-330,392,120,-322
2,305162,198,-1870,-415,-1027,-579,-332,392,120,-322
2,305168,198,-1870,-415,-1027,-579,-332,392,120,-322
2,305173,198,-1870,-415,-1027,-579,-332,392,120,-322
2,305179,198,-1870,-415,-1027,-579,-332,392,120,-322
2,305184,194,-1865,-418,-1023,-587,-329,392,120,-322
2,305189,194,-1865,-418,-1023,-587,-329,392,120,-322
2,305195,194,-1865,-418,-1023,-587,-329,392,120,-322
2,305201,194,-1865,-418,-1023,-587,-329,392,120,-322
2,305206,190,-1867,-425,-1021,-585,-325,392,120,-322
2,305212,190,-1867,-425,-1021,-585,-325,392,120,-322
2,305217,190,-1867,-425,-1021,-585,-325,392,120,-322
2,305223,196,-1870,-418,-1026,-577,-331,392,120,-322
2,305228,196,-1870,-418,-1026,-577,-331,392,120,-322
2,305234,196,-1870,-418,-1026,-577,-331,392,120,-322
2,305241,196,-1870,-418,-1026,-577,-331,392,120,-322
2,305246,192,-1872,-417,-1020,-579,-320,388,132,-320
2,305252,192,-1872,-417,-1020,-579,-320,388,132,-320
2,305257,192,-1872,-417,-1020,-579,-320,388,132,-320
2,305263,194,-1868,-414,-1024,-582,-323,388,132,-320
2,305268,194,-1868,-414,-1024,-582,-323,388,132,-320
2,305274,194,-1868,-414,-1024,-582,-323,388,132,-320
2,305280,194,-1868,-414,-1024,-582,-323,388,132,-320
2,305285,197,-1870,-414,-1028,-584,-326,388,132,-320
2,305291,197,-1870,-414,-1028,-584,-326,388,132,-320
2,305295,197,-1870,-414,-1028,-584,-326,388,132,-320
2,305301,197,-1870,-414,-1028,-584,-326,388,132,-320
2,305306,195,-1871,-421,-1030,-581,-331,388,132,-320
2,305312,195,-1871,-421,-1030,-581,-331,388,132,-320
2,305318,195,-1871,-421,-1030,-581,-331,388,132,-320
2,305324,195,-1870,-420,-1028,-580,-326,388,132,-320
2,305330,195,-1870,-420,-1028,-580,-326,388,132,-320
2,305335,195,-1870,-420,-1028,-580,-326,388,132,-320
2,305341,195,-1870,-420,-1028,-580,-326,388,132,-320
2,305346,192,-1868,-416,-1028,-581,-317,388,132,-320
2,305351,192,-1868,-416,-1028,-581,-317,388,132,-320
2,305356,192,-1868,-416,-1028,-581,-317,388,132,-320
2,305362,192,-1871,-411,-1025,-577,-324,396,130,-330
2,305368,192,-1871,-411,-1025,-577,-324,396,130,-330
2,305374,192,-1871,-411,-1025,-577,-324,396,130,-330
2,305379,192,-1871,-411,-1025,-577,-324,396,130,-330
2,305385,197,-1868,-415,-1025,-576,-329,396,130,-330
2,305391,197,-1868,-415,-1025,-576,-329,396,130,-330
2,305396,197,-1868,-415,-1025,-576,-329,396,130,-330
2,305402,196,-1868,-420,-1022,-580,-324,396,130,-330
2,305408,196,-1868,-420,-1022,-580,-324,396,130,-330
2,305414,196,-1868,-420,-1022,-580,-324,396,130,-330
2,305419,196,-1868,-420,-1022,-580,-324,396,130,-330
2,305425,194,-1869,-423,-1025,-579,-327,396,130,-330
2,305431,194,-1869,-423,-1025,-579,-327,396,130,-330
2,305436,194,-1869,-423,-1025,-579,-327,396,130,-330
2,305441,194,-1869,-423,-1025,-579,-327,396,130,-330
2,305446,196,-1868,-414,-1023,-578,-327,396,130,-330
2,305454,196,-1868,-414,-1023,-578,-327,396,130,-330
2,305459,196,-1868,-414,-1023,-578,-327,396,130,-330
2,305465,200,-1869,-416,-1022,-588,-324,396,130,-330
2,305471,200,-1869,-416,-1022,-588,-324,396,130,-330
2,305477,200,-1869,-416,-1022,-588,-324,396,130,-330
2,305482,195,-1866,-413,-1022,-585,-324,398,130,-318
2,305487,195,-1866,-413,-1022,-585,-324,398,130,-318
2,305492,195,-1866,-413,-1022,-585,-324,398,130,-318
2,305499,195,-1866,-413,-1022,-585,-324,398,130,-318
2,305504,192,-1870,-415,-1021,-588,-323,398,130,-318
2,305510,192,-1870,-415,-1021,-588,-323,398,130,-318
2,305515,192,-1870,-415,-1021,-588,-323,398,130,-318
2,305520,192,-1870,-415,-1021,-588,-323,398,130,-318
2,305526,195,-1868,-416,-1030,-587,-327,398,130,-318
2,305531,195,-1868,-416,-1030,-587,-327,398,130,-318
2,305537,195,-1868,-416,-1030,-587,-327,398,130,-318
2,305543,192,-1868,-418,-1018,-580,-332,398,130,-318
2,305548,192,-1868,-418,-1018,-580,-332,398,130,-318
2,305554,192,-1868,-418,-1018,-580,-332,398,130,-318
2,305559,192,-1868,-418,-1018,-580,-332,398,130,-318
2,305564,195,-1867,-417,-1020,-582,-325,398,130,-318
2,305569,195,-1867,-417,-1020,-582,-325,398,130,-318
2,305574,195,-1867,-417,-1020,-582,-325,398,130,-318
2,305581,195,-1867,-417,-1020,-582,-325,398,130,-318
2,305586,195,-1866,-418,-1025,-584,-329,398,130,-318
2,305592,195,-1866,-418,-1025,-584,-329,398,130,-318
2,305598,195,-1866,-418,-1025,-584,-329,398,130,-318
2,305603,193,-1867,-419,-1027,-581,-329,398,130,-318
2,305608,193,-1867,-419,-1027,-581,-329,398,130,-318
2,305613,193,-1867,-419,-1027,-581,-329,398,130,-318
2,305619,193,-1867,-419,-1027,-581,-329,398,130,-318
2,305625,197,-1868,-412,-1027,-578,-328,395,123,-315
2,305631,197,-1868,-412,-1027,-578,-328,395,123,-315
2,305636,197,-1868,-412,-1027,-578,-328,395,123,-315
2,305641,197,-1868,-412,-1027,-578,-328,395,123,-315
2,305646,193,-1869,-419,-1022,-583,-328,395,123,-315
2,305652,193,-1869,-419,-1022,-583,-328,395,123,-315
2,305657,193,-1869,-419,-1022,-583,-328,395,123,-315
2,305664,193,-1867,-417,-1023,-587,-324,395,123,-315
2,305669,193,-1867,-417,-1023,-587,-324,395,123,-315
2,305674,193,-1867,-417,-1023,-587,-324,395,123,-315
2,305680,193,-1867,-417,-1023,-587,-324,395,123,-315
2,305685,193,-1868,-412,-1026,-585,-322,395,123,-315
2,305690,193,-1868,-412,-1026,-585,-322,395,123,-315
2,305695,193,-1868,-412,-1026,-585,-322,395,123,-315
2,305701,193,-1868,-412,-1026,-585,-322,395,123,-315
2,305707,196,-1869,-416,-1020,-585,-329,395,123,-315
2,305713,196,-1869,-416,-1020,-585,-329,395,123,-315
2,305718,196,-1869,-416,-1020,-585,-329,395,123,-315
2,305724,193,-1869,-420,-1031,-586,-326,395,123,-315
2,305729,193,-1869,-420,-1031,-586,-326,395,123,-315
2,305734,193,-1869,-420,-1031,-586,-326,395,123,-315
2,305740,193,-1869,-420,-1031,-586,-326,395,123,-315
2,305745,195,-1867,-416,-1020,-581,-330,401,125,-317
2,305751,195,-1867,-416,-1020,-581,-330,401,125,-317
2,305756,195,-1867,-416,-1020,-581,-330,401,125,-317
2,305761,195,-1867,-416,-1020,-581,-330,401,125,-317
2,305767,195,-1868,-414,-1030,-578,-330,401,125,-317
2,305772,195,-1868,-414,-1030,-578,-330,401,125,-317
2,305777,195,-1868,-414,-1030,-578,-330,401,125,-317
2,305783,193,-1869,-418,-1032,-589,-332,401,125,-317
2,305789,193,-1869,-418,-1032,-589,-332,401,125,-317
2,305795,193,-1869,-418,-1032,-589,-332,401,125,-317
2,305801,193,-1869,-418,-1032,-589,-332,401,125,-317
2,305806,194,-1867,-415,-1026,-588,-326,401,125,-317
2,305811,194,-1867,-415,-1026,-588,-326,401,125,-317
2,305817,194,-1867,-415,-1026,-588,-326,401,125,-317
2,305823,192,-1867,-414,-1026,-583,-323,401,125,-317
2,305828,192,-1867,-414,-1026,-583,-323,401,125,-317
2,305833,192,-1867,-414,-1026,-583,-323,401,125,-317
2,305840,192,-1867,-414,-1026,-583,-323,401,125,-317
2,305845,195,-1869,-415,-1029,-590,-327,401,125,-317
2,305851,195,-1869,-415,-1029,-590,-327,401,125,-317
2,305856,195,-1869,-415,-1029,-590,-327,401,125,-317
2,305862,195,-1869,-415,-1029,-590,-327,401,125,-317
2,305867,197,-1868,-413,-1026,-585,-323,401,125,-317
2,305872,197,-1868,-413,-1026,-585,-323,401,125,-317
2,305879,197,-1868,-413,-1026,-585,-323,401,125,-317
2,305884,192,-1868,-415,-1028,-579,-324,401,123,-327
2,305890,192,-1868,-415,-1028,-579,-324,401,123,-327
2,305895,192,-1868,-415,-1028,-579,-324,401,123,-327
2,305900,192,-1868,-415,-1028,-579,-324,401,123,-327
2,305905,194,-1868,-416,-1026,-580,-327,401,123,-327
2,305911,194,-1868,-416,-1026,-580,-327,401,123,-327
2,305916,194,-1868,-416,-1026,-580,-327,401,123,-327
2,305923,194,-1868,-416,-1026,-580,-327,401,123,-327
2,305928,194,-1868,-412,-1017,-577,-321,401,123,-327
2,305933,194,-1868,-412,-1017,-577,-321,401,123,-327
2,305938,194,-1868,-412,-1017,-577,-321,401,123,-327
2,305944,196,-1870,-412,-1024,-574,-319,401,123,-327
2,305949,196,-1870,-412,-1024,-574,-319,401,123,-327
2,305955,196,-1870,-412,-1024,-574,-319,401,123,-327
2,305960,196,-1870,-412,-1024,-574,-319,401,123,-327
2,305966,192,-1872,-413,-1029,-581,-324,401,123,-327
2,305971,192,-1872,-413,-1029,-581,-324,401,123,-327
2,305976,192,-1872,-413,-1029,-581,-324,401,123,-327
2,305982,192,-1872,-413,-1029,-581,-324,401,123,-327
2,305986,197,-1869,-417,-1027,-582,-324,401,123,-327
2,305992,197,-1869,-417,-1027,-582,-324,401,123,-327
2,305998,197,-1869,-417,-1027,-582,-324,401,123,-327
2,306003,197,-1868,-417,-1027,-579,-326,398,124,-322
2,306009,197,-1868,-417,-1027,-579,-326,398,124,-322
2,306015,197,-1868,-417,-1027,-579,-326,398,124,-322
2,306020,197,-1868,-417,-1027,-579,-326,398,124,-322
2,306026,194,-1868,-422,-1031,-582,-330,398,124,-322
2,306031,194,-1868,-422,-1031,-582,-330,398,124,-322
2,306037,194,-1868,-422,-1031,-582,-330,398,124,-322
2,306043,193,-1867,-416,-1028,-582,-328,398,124,-322
2,306049,193,-1867,-416,-1028,-582,-328,398,124,-322
2,306054,193,-1867,-416,-1028,-582,-328,398,124,-322
2,306060,193,-1867,-416,-1028,-582,-328,398,124,-322
2,306065,193,-1869,-419,-1017,-583,-327,398,124,-322
2,306070,193,-1869,-419,-1017,-583,-327,398,124,-322
2,306076,193,-1869,-419,-1017,-583,-327,398,124,-322
2,306081,193,-1869,-419,-1017,-583,-327,398,124,-322
2,306087,194,-1868,-420,-1021,-581,-326,398,124,-322
2,306093,194,-1868,-420,-1021,-581,-326,398,124,-322
2,306098,194,-1868,-420,-1021,-581,-326,398,124,-322
2,306103,193,-1868,-417,-1033,-580,-328,398,124,-322
2,306109,193,-1868,-417,-1033,-580,-328,398,124,-322
2,306114,193,-1868,-417,-1033,-580,-328,398,124,-322
2,306119,193,-1868,-417,-1033,-580,-328,398,124,-322
2,306125,195,-1871,-418,-1029,-576,-328,393,125,-309
2,306131,195,-1871,-418,-1029,-576,-328,393,125,-309
2,306137,195,-1871,-418,-1029,-576,-328,393,125,-309
2,306142,195,-1871,-418,-1029,-576,-328,393,125,-309
2,306148,194,-1868,-419,-1032,-579,-334,393,125,-309
2,306153,194,-1868,-419,-1032,-579,-334,393,125,-309
2,306159,194,-1868,-419,-1032,-579,-334,393,125,-309
2,306165,196,-1869,-419,-1028,-585,-328,393,125,-309
2,306170,196,-1869,-419,-1028,-585,-328,393,125,-309
2,306176,196,-1869,-419,-1028,-585,-328,393,125,-309
2,306182,196,-1869,-419,-1028,-585,-328,393,125,-309
2,306187,196,-1867,-414,-1030,-584,-321,393,125,-309
2,306192,196,-1867,-414,-1030,-584,-321,393,125,-309
2,306198,196,-1867,-414,-1030,-584,-321,393,125,-309
2,306203,194,-1868,-415,-1028,-577,-332,393,125,-309
2,306209,194,-1868,-415,-1028,-577,-332,393,125,-309
2,306214,194,-1868,-415,-1028,-577,-332,393,125,-309
2,306220,194,-1868,-415,-1028,-577,-332,393,125,-309
2,306226,195,-1869,-416,-1027,-570,-325,393,125,-309
2,306231,195,-1869,-416,-1027,-570,-325,393,125,-309
2,306237,195,-1869,-416,-1027,-570,-325,393,125,-309
2,306242,195,-1869,-416,-1027,-570,-325,393,125,-309
2,306247,196,-1864,-415,-1026,-578,-329,393,125,-309
2,306252,196,-1864,-415,-1026,-578,-329,393,125,-309
2,306258,196,-1864,-415,-1026,-578,-329,393,125,-309
2,306264,197,-1868,-417,-1028,-578,-331,395,123,-317
2,306269,197,-1868,-417,-1028,-578,-331,395,123,-317
2,306275,197,-1868,-417,-1028,-578,-331,395,123,-317
2,306280,197,-1868,-417,-1028,-578,-331,395,123,-317
2,306285,195,-1868,-413,-1015,-575,-328,395,123,-317
2,306291,195,-1868,-413,-1015,-575,-328,395,123,-317
2,306296,195,-1868,-413,-1015,-575,-328,395,123,-317
2,306301,195,-1868,-413,-1015,-575,-328,395,123,-317
2,306308,196,-1868,-419,-1024,-584,-335,395,123,-317
2,306313,196,-1868,-419,-1024,-584,-335,395,123,-317
2,306319,196,-1868,-419,-1024,-584,-335,395,123,-317
2,306324,195,-1870,-418,-1035,-590,-330,395,123,-317
2,306329,195,-1870,-418,-1035,-590,-330,395,123,-317
2,306334,195,-1870,-418,-1035,-590,-330,395,123,-317
2,306340,195,-1870,-418,-1035,-590,-330,395,123,-317
2,306345,195,-1869,-413,-1029,-581,-331,395,123,-317
2,306351,195,-1869,-413,-1029,-581,-331,395,123,-317
2,306357,195,-1869,-413,-1029,-581,-331,395,123,-317
2,306363,195,-1869,-413,-1029,-581,-331,395,123,-317
2,306368,197,-1871,-419,-1030,-577,-332,395,123,-317
2,306373,197,-1871,-419,-1030,-577,-332,395,123,-317
2,306378,197,-1871,-419,-1030,-577,-332,395,123,-317
2,306384,196,-1869,-415,-1031,-577,-330,394,138,-324
2,306391,196,-1869,-415,-1031,-577,-330,394,138,-324
2,306396,196,-1869,-415,-1031,-577,-330,394,138,-324
2,306401,196,-1869,-415,-1031,-577,-330,394,138,-324
2,306406,193,-1869,-417,-1025,-580,-325,394,138,-324
2,306412,193,-1869,-417,-1025,-580,-325,394,138,-324
2,306417,193,-1869,-417,-1025,-580,-325,394,138,-324
2,306422,193,-1869,-417,-1025,-580,-325,394,138,-324
2,306428,197,-1870,-411,-1025,-577,-325,394,138,-324
2,306434,197,-1870,-411,-1025,-577,-325,394,138,-324
2,306439,197,-1870,-411,-1025,-577,-325,394,138,-324
2,306444,195,-1869,-414,-1026,-579,-321,394,138,-324
2,306449,195,-1869,-414,-1026,-579,-321,394,138,-324
2,306454,195,-1869,-414,-1026,-579,-321,394,138,-324
2,306460,195,-1869,-414,-1026,-579,-321,394,138,-324
2,306465,194,-1867,-419,-1020,-587,-326,394,138,-324
2,306470,194,-1867,-419,-1020,-587,-326,394,138,-324
2,306476,194,-1867,-419,-1020,-587,-326,394,138,-324
2,306482,194,-1867,-419,-1020,-587,-326,394,138,-324
2,306487,194,-1869,-420,-1024,-577,-322,394,138,-324
2,306492,194,-1869,-420,-1024,-577,-322,394,138,-324
2,306498,194,-1869,-420,-1024,-577,-322,394,138,-324
2,306503,194,-1867,-417,-1025,-580,-329,394,138,-324
2,306508,194,-1867,-417,-1025,-580,-329,394,138,-324
2,306513,194,-1867,-417,-1025,-580,-329,394,138,-324
2,306520,194,-1867,-417,-1025,-580,-329,394,138,-324
2,306525,194,-1872,-409,-1022,-580,-332,395,123,-317
2,306530,194,-1872,-409,-1022,-580,-332,395,123,-317
2,306536,194,-1872,-409,-1022,-580,-332,395,123,-317
2,306542,194,-1872,-409,-1022,-580,-332,395,123,-317
2,306547,199,-1868,-416,-1026,-579,-334,395,123,-317
2,306552,199,-1868,-416,-1026,-579,-334,395,123,-317
2,306558,199,-1868,-416,-1026,-579,-334,395,123,-317
2,306564,196,-1867,-419,-1026,-584,-328,395,123,-317
2,306569,196,-1867,-419,-1026,-584,-328,395,123,-317
2,306575,196,-1867,-419,-1026,-584,-328,395,123,-317
2,306580,196,-1867,-419,-1026,-584,-328,395,123,-317
2,306585,196,-1870,-414,-1034,-580,-329,395,123,-317
2,306590,196,-1870,-414,-1034,-580,-329,395,123,-317
2,306596,196,-1870,-414,-1034,-580,-329,395,123,-317
2,306601,196,-1870,-414,-1034,-580,-329,395,123,-317
2,306607,195,-1867,-420,-1027,-580,-319,395,123,-317
2,306612,195,-1867,-420,-1027,-580,-319,395,123,-317
2,306618,195,-1867,-420,-1027,-580,-319,395,123,-317
2,306623,195,-1867,-420,-1027,-580,-319,395,123,-317
2,306628,195,-1867,-421,-1020,-572,-325,395,123,-317
2,306633,195,-1867,-421,-1020,-572,-325,395,123,-317
2,306638,195,-1867,-421,-1020,-572,-325,395,123,-317
2,306644,195,-1870,-418,-1025,-587,-326,402,134,-324
2,306650,195,-1870,-418,-1025,-587,-326,402,134,-324
2,306656,195,-1870,-418,-1025,-587,-326,402,134,-324
2,306661,195,-1870,-418,-1025,-587,-326,402,134,-324
2,306667,197,-1868,-415,-1024,-585,-326,402,134,-324
2,306671,197,-1868,-415,-1024,-585,-326,402,134,-324
2,306676,197,-1868,-415,-1024,-585,-326,402,134,-324
2,306682,197,-1868,-415,-1024,-585,-326,402,134,-324
2,306689,191,-1870,-422,-1028,-584,-321,402,134,-324
2,306694,191,-1870,-422,-1028,-584,-321,402,134,-324
2,306700,191,-1870,-422,-1028,-584,-321,402,134,-324
2,306705,194,-1869,-415,-1027,-578,-323,402,134,-324
2,306711,194,-1869,-415,-1027,-578,-323,402,134,-324
2,306715,194,-1869,-415,-1027,-578,-323,402,134,-324
2,306721,194,-1869,-415,-1027,-578,-323,402,134,-324
2,306726,195,-1867,-414,-1031,-580,-325,402,134,-324
2,306733,195,-1867,-414,-1031,-580,-325,402,134,-324
2,306738,195,-1867,-414,-1031,-580,-325,402,134,-324
2,306743,195,-1867,-414,-1031,-580,-325,402,134,-324
2,306749,193,-1872,-418,-1028,-580,-323,402,134,-324
2,306755,193,-1872,-418,-1028,-580,-323,402,134,-324
2,306760,193,-1872,-418,-1028,-580,-323,402,134,-324
2,306766,196,-1867,-414,-1031,-582,-325,401,117,-319
2,306771,196,-1867,-414,-1031,-582,-325,401,117,-319
2,306778,196,-1867,-414,-1031,-582,-325,401,117,-319
2,306783,196,-1867,-414,-1031,-582,-325,401,117,-319
2,306789,198,-1868,-419,-1020,-577,-325,401,117,-319
2,306794,198,-1868,-419,-1020,-577,-325,401,117,-319
2,306799,198,-1868,-419,-1020,-577,-325,401,117,-319
2,306805,193,-1871,-416,-1023,-577,-330,401,117,-319
2,306810,193,-1871,-416,-1023,-577,-330,401,117,-319
2,306816,193,-1871,-416,-1023,-577,-330,401,117,-319
2,306821,193,-1871,-416,-1023,-577,-330,401,117,-319
2,306827,192,-1869,-415,-1026,-585,-329,401,117,-319
2,306832,192,-1869,-415,-1026,-585,-329,401,117,-319
2,306837,192,-1869,-415,-1026,-585,-329,401,117,-319
2,306843,192,-1869,-415,-1026,-585,-329,401,117,-319
2,306848,193,-1871,-414,-1033,-587,-331,401,117,-319
2,306853,193,-1871,-414,-1033,-587,-331,401,117,-319
2,306860,193,-1871,-414,-1033,-587,-331,401,117,-319
2,306867,196,-1870,-420,-1025,-589,-333,401,117,-319
2,306874,196,-1870,-420,-1025,-589,-333,401,117,-319
2,306880,196,-1870,-420,-1025,-589,-333,401,117,-319
2,306886,194,-1870,-414,-1027,-585,-325,401,117,-319
2,306891,194,-1870,-414,-1027,-585,-325,401,117,-319
2,306897,194,-1870,-414,-1027,-585,-325,401,117,-319
2,306903,194,-1870,-414,-1027,-585,-325,401,117,-319
2,306909,195,-1870,-415,-1024,-589,-323,396,118,-332
2,306914,195,-1870,-415,-1024,-589,-323,396,118,-332
2,306920,195,-1870,-415,-1024,-589,-323,396,118,-332
2,306925,194,-1871,-420,-1035,-582,-324,396,118,-332
2,306930,194,-1871,-420,-1035,-582,-324,396,118,-332
2,306935,194,-1871,-420,-1035,-582,-324,396,118,-332
2,306940,194,-1871,-420,-1035,-582,-324,396,118,-332
2,306946,194,-1869,-419,-1036,-583,-330,396,118,-332
2,306951,194,-1869,-419,-1036,-583,-330,396,118,-332
2,306957,194,-1869,-419,-1036,-583,-330,396,118,-332
2,306962,194,-1869,-419,-1036,-583,-330,396,118,-332
2,306968,196,-1868,-416,-1037,-587,-328,396,118,-332
2,306974,196,-1868,-416,-1037,-587,-328,396,118,-332
2,306979,196,-1868,-416,-1037,-587,-328,396,118,-332
2,306984,195,-1869,-419,-1028,-578,-332,396,118,-332
2,306991,195,-1869,-419,-1028,-578,-332,396,118,-332
2,306997,195,-1869,-419,-1028,-578,-332,396,118,-332
2,307002,195,-1869,-419,-1028,-578,-332,396,118,-332
2,307007,194,-1868,-419,-1024,-580,-335,396,118,-332
2,307012,194,-1868,-419,-1024,-580,-335,396,118,-332
2,307017,194,-1868,-419,-1024,-580,-335,396,118,-332
2,307022,194,-1868,-419,-1024,-580,-335,396,118,-332
2,307028,193,-1868,-414,-1027,-584,-330,394,126,-318
2,307034,193,-1868,-414,-1027,-584,-330,394,126,-318
2,307039,193,-1868,-414,-1027,-584,-330,394,126,-318
2,307044,193,-1868,-414,-1027,-584,-330,394,126,-318
2,307049,193,-1864,-417,-1019,-586,-324,394,126,-318
2,307054,193,-1864,-417,-1019,-586,-324,394,126,-318
2,307060,193,-1864,-417,-1019,-586,-324,394,126,-318
2,307065,194,-1866,-418,-1015,-580,-328,394,126,-318
2,307070,194,-1866,-418,-1015,-580,-328,394,126,-318
2,307076,194,-1866,-418,-1015,-580,-328,394,126,-318
2,307082,194,-1866,-418,-1015,-580,-328,394,126,-318
2,307087,195,-1868,-419,-1031,-580,-330,394,126,-318
2,307093,195,-1868,-419,-1031,-580,-330,394,126,-318
2,307098,195,-1868,-419,-1031,-580,-330,394,126,-318
2,307104,194,-1869,-420,-1030,-577,-327,394,126,-318
2,307109,194,-1869,-420,-1030,-577,-327,394,126,-318
2,307116,194,-1869,-420,-1030,-577,-327,394,126,-318
2,307122,194,-1869,-420,-1030,-577,-327,394,126,-318
2,307126,197,-1869,-416,-1024,-582,-325,394,126,-318
2,307132,197,-1869,-416,-1024,-582,-325,394,126,-318
2,307137,197,-1869,-416,-1024,-582,-325,394,126,-318
2,307143,197,-1869,-416,-1024,-582,-325,394,126,-318
2,307148,197,-1869,-417,-1035,-586,-326,394,126,-318
2,307153,197,-1869,-417,-1035,-586,-326,394,126,-318
2,307159,197,-1869,-417,-1035,-586,-326,394,126,-318
2,307164,197,-1869,-417,-1035,-586,-326,394,126,-318
2,307170,193,-1869,-420,-1029,-585,-324,398,134,-322
2,307175,193,-1869,-420,-1029,-585,-324,398,134,-322
2,307182,193,-1869,-420,-1029,-585,-324,398,134,-322
2,307187,192,-1866,-411,-1027,-585,-326,398,134,-322
2,307192,192,-1866,-411,-1027,-585,-326,398,134,-322
2,307198,192,-1866,-411,-1027,-585,-326,398,134,-322
2,307204,192,-1866,-411,-1027,-585,-326,398,134,-322
2,307209,196,-1869,-420,-1030,-588,-325,398,134,-322
2,307214,196,-1869,-420,-1030,-588,-325,398,134,-322
2,307219,196,-1869,-420,-1030,-588,-325,398,134,-322
2,307224,198,-1869,-419,-1019,-581,-321,398,134,-322
2,307229,198,-1869,-419,-1019,-581,-321,398,134,-322
2,307234,198,-1869,-419,-1019,-581,-321,398,134,-322
2,307240,198,-1869,-419,-1019,-581,-321,398,134,-322
2,307246,194,-1870,-423,-1030,-584,-319,398,134,-322
2,307252,194,-1870,-423,-1030,-584,-319,398,134,-322
2,307257,194,-1870,-423,-1030,-584,-319,398,134,-322
2,307262,194,-1870,-423,-1030,-584,-319,398,134,-322
2,307268,194,-1869,-414,-1031,-590,-324,398,134,-322
2,307273,194,-1869,-414,-1031,-590,-324,398,134,-322
2,307279,194,-1869,-414,-1031,-590,-324,398,134,-322
2,307284,195,-1867,-414,-1031,-575,-323,399,123,-321
2,307291,195,-1867,-414,-1031,-575,-323,399,123,-321
2,307296,195,-1867,-414,-1031,-575,-323,399,123,-321
2,307301,195,-1867,-414,-1031,-575,-323,399,123,-321
2,307306,190,-1868,-411,-1027,-574,-327,399,123,-321
2,307311,190,-1868,-411,-1027,-574,-327,399,123,-321
2,307316,190,-1868,-411,-1027,-574,-327,399,123,-321
2,307322,190,-1868,-411,-1027,-574,-327,399,123,-321
2,307329,190,-1868,-411,-1027,-574,-327,399,123,-321
2,307334,190,-1868,-411,-1027,-574,-327,399,123,-321
2,307340,190,-1868,-411,-1027,-574,-327,399,123,-321
2,307345,193,-1867,-414,-1030,-581,-321,399,123,-321
2,307350,193,-1867,-414,-1030,-581,-321,399,123,-321
2,307356,193,-1867,-414,-1030,-581,-321,399,123,-321
2,307361,193,-1867,-414,-1030,-581,-321,399,123,-321
2,307366,193,-1867,-412,-1027,-578,-327,399,123,-321
2,307372,193,-1867,-412,-1027,-578,-327,399,123,-321
2,307377,193,-1867,-412,-1027,-578,-327,399,123,-321
2,307382,193,-1867,-412,-1027,-578,-327,399,123,-321
2,307388,196,-1869,-420,-1017,-581,-325,399,123,-321
2,307393,196,-1869,-420,-1017,-581,-325,399,123,-321
2,307398,196,-1869,-420,-1017,-581,-325,399,123,-321
2,307404,196,-1869,-420,-1017,-581,-325,399,123,-321
2,307409,195,-1868,-420,-1021,-586,-328,393,131,-315
2,307415,195,-1868,-420,-1021,-586,-328,393,131,-315
2,307421,195,-1868,-420,-1021,-586,-328,393,131,-315
2,307426,192,-1868,-414,-1012,-583,-330,393,131,-315
2,307432,192,-1868,-414,-1012,-583,-330,393,131,-315
2,307437,192,-1868,-414,-1012,-583,-330,393,131,-315
2,307443,192,-1868,-414,-1012,-583,-330,393,131,-315
2,307448,196,-1871,-416,-1020,-585,-327,393,131,-315
2,307454,196,-1871,-416,-1020,-585,-327,393,131,-315
2,307460,196,-1871,-416,-1020,-585,-327,393,131,-315
2,307465,193,-1870,-418,-1016,-580,-328,393,131,-315
2,307472,193,-1870,-418,-1016,-580,-328,393,131,-315
2,307477,193,-1870,-418,-1016,-580,-328,393,131,-315
2,307484,193,-1870,-418,-1016,-580,-328,393,131,-315
2,307489,193,-1868,-416,-1026,-583,-325,393,131,-315
2,307494,193,-1868,-416,-1026,-583,-325,393,131,-315
2,307502,193,-1868,-416,-1026,-583,-325,393,131,-315
2,307529,194,-1868,-419,-1022,-580,-323,393,131,-315
2,307542,194,-1868,-419,-1022,-580,-323,393,131,-315
2,307547,194,-1869,-417,-1022,-579,-326,397,125,-323
2,307565,194,-1872,-417,-1028,-578,-327,397,125,-323
2,307582,194,-1872,-417,-1028,-578,-327,397,125,-323
2,307588,196,-1867,-416,-1024,-577,-324,397,125,-323
2,307594,196,-1867,-416,-1024,-577,-324,397,125,-323
2,307598,196,-1867,-416,-1024,-577,-324,397,125,-323
2,307604,196,-1867,-416,-1024,-577,-324,397,125,-323
2,307608,193,-1870,-414,-1020,-582,-327,397,125,-323
2,307613,193,-1870,-414,-1020,-582,-327,397,125,-323
2,307618,193,-1870,-414,-1020,-582,-327,397,125,-323
2,307623,193,-1870,-414,-1020,-582,-327,397,125,-323
2,307629,191,-1869,-420,-1020,-580,-324,397,125,-323
2,307633,191,-1869,-420,-1020,-580,-324,397,125,-323
2,307638,191,-1869,-420,-1020,-580,-324,397,125,-323
2,307643,191,-1869,-420,-1020,-580,-324,397,125,-323
2,307647,196,-1867,-419,-1033,-577,-324,397,125,-323
2,307652,196,-1867,-419,-1033,-577,-324,397,125,-323
2,307657,196,-1867,-419,-1033,-577,-324,397,125,-323
2,307662,196,-1867,-419,-1033,-577,-324,397,125,-323
2,307667,197,-1868,-414,-1025,-579,-321,390,138,-318
2,307672,197,-1868,-414,-1025,-579,-321,390,138,-318
2,307677,197,-1868,-414,-1025,-579,-321,390,138,-318
2,307681,197,-1868,-414,-1025,-579,-321,390,138,-318
2,307685,190,-1869,-411,-1023,-579,-321,390,138,-318
2,307690,190,-1869,-411,-1023,-579,-321,390,138,-318
2,307694,190,-1869,-411,-1023,-579,-321,390,138,-318
2,307699,190,-1869,-411,-1023,-579,-321,390,138,-318
2,307703,190,-1869,-411,-1023,-579,-321,390,138,-318
2,307708,195,-1870,-414,-1024,-583,-333,390,138,-318
2,307714,195,-1870,-414,-1024,-583,-333,390,138,-318
2,307718,195,-1870,-414,-1024,-583,-333,390,138,-318
2,307723,195,-1870,-414,-1024,-583,-333,390,138,-318
2,307727,194,-1871,-412,-1028,-582,-328,390,138,-318
2,307733,194,-1871,-412,-1028,-582,-328,390,138,-318
2,307737,194,-1871,-412,-1028,-582,-328,390,138,-318
2,307742,194,-1871,-412,-1028,-582,-328,390,138,-318
2,307747,196,-1868,-416,-1023,-578,-328,390,138,-318
2,307752,196,-1868,-416,-1023,-578,-328,390,138,-318
2,307758,196,-1868,-416,-1023,-578,-328,390,138,-318
2,307763,196,-1868,-416,-1023,-578,-328,390,138,-318
2,307767,194,-1867,-416,-1022,-577,-326,390,138,-318
2,307772,194,-1867,-416,-1022,-577,-326,390,138,-318
2,307778,194,-1867,-416,-1022,-577,-326,390,138,-318
2,307782,194,-1867,-416,-1022,-577,-326,390,138,-318
2,307787,195,-1867,-413,-1027,-579,-324,390,138,-318
2,307792,195,-1867,-413,-1027,-579,-324,390,138,-318
2,307798,195,-1867,-413,-1027,-579,-324,390,138,-318
2,307802,195,-1867,-413,-1027,-579,-324,390,138,-318
2,307806,191,-1870,-414,-1029,-580,-328,391,133,-313
2,307811,191,-1870,-414,-1029,-580,-328,391,133,-313
2,307817,191,-1870,-414,-1029,-580,-328,391,133,-313
2,307821,191,-1870,-414,-1029,-580,-328,391,133,-313
2,307826,197,-1867,-413,-1021,-583,-327,391,133,-313
2,307831,197,-1867,-413,-1021,-583,-327,391,133,-313
2,307836,197,-1867,-413,-1021,-583,-327,391,133,-313
2,307842,197,-1867,-413,-1021,-583,-327,391,133,-313
2,307847,196,-1868,-417,-1028,-583,-324,391,133,-313
2,307852,196,-1868,-417,-1028,-583,-324,391,133,-313
2,307857,196,-1868,-417,-1028,-583,-324,391,133,-313
2,307862,196,-1868,-417,-1028,-583,-324,391,133,-313
2,307868,196,-1869,-418,-1025,-588,-320,391,133,-313
2,307872,196,-1869,-418,-1025,-588,-320,391,133,-313
2,307878,196,-1869,-418,-1025,-588,-320,391,133,-313
2,307884,196,-1869,-418,-1025,-588,-320,391,133,-313
2,307890,194,-1869,-416,-1029,-582,-331,391,133,-313
2,307895,194,-1869,-416,-1029,-582,-331,391,133,-313
2,307900,194,-1869,-416,-1029,-582,-331,391,133,-313
2,307905,194,-1867,-417,-1024,-574,-325,391,133,-313
2,307911,194,-1867,-417,-1024,-574,-325,391,133,-313
2,307916,194,-1867,-417,-1024,-574,-325,391,133,-313
2,307922,194,-1867,-417,-1024,-574,-325,391,133,-313
2,307929,193,-1871,-413,-1024,-583,-325,392,128,-318
2,307934,193,-1871,-413,-1024,-583,-325,392,128,-318
2,307939,193,-1871,-413,-1024,-583,-325,392,128,-318
2,307945,193,-1865,-413,-1024,-582,-330,392,128,-318
2,307951,193,-1865,-413,-1024,-582,-330,392,128,-318
2,307957,193,-1865,-413,-1024,-582,-330,392,128,-318
2,307962,193,-1865,-413,-1024,-582,-330,392,128,-318
2,307969,195,-1870,-418,-1017,-577,-335,392,128,-318
2,307975,195,-1870,-418,-1017,-577,-335,392,128,-318
2,307981,195,-1870,-418,-1017,-577,-335,392,128,-318
2,307987,196,-1871,-420,-1023,-579,-321,392,128,-318
2,307992,196,-1871,-420,-1023,-579,-321,392,128,-318
2,307998,196,-1871,-420,-1023,-579,-321,392,128,-318
2,308003,196,-1871,-420,-1023,-579,-321,392,128,-318
