imu,time,ax,ay,az,gx,gy,gz,mx,my,mz
0,247571,-1652,690,-508,-1495,-312,-40,261,399,-279
0,247578,-1650,689,-507,-1485,-314,-43,261,399,-279
0,247586,-1650,689,-507,-1485,-314,-43,261,399,-279
0,247595,-1650,689,-507,-1485,-314,-43,261,399,-279
0,247602,-1650,687,-513,-1489,-310,-41,261,399,-279
0,247609,-1650,687,-513,-1489,-310,-41,261,399,-279
0,247616,-1650,687,-513,-1489,-310,-41,261,399,-279
0,247622,-1650,687,-509,-1486,-301,-35,261,413,-283
0,247629,-1650,687,-509,-1486,-301,-35,261,413,-283
0,247636,-1650,687,-509,-1486,-301,-35,261,413,-283
0,247643,-1649,686,-502,-1483,-302,-48,261,413,-283
0,247649,-1649,686,-502,-1483,-302,-48,261,413,-283
0,247655,-1649,686,-502,-1483,-302,-48,261,413,-283
0,247661,-1651,683,-507,-1481,-303,-45,261,413,-283
0,247667,-1651,683,-507,-1481,-303,-45,261,413,-283
0,247672,-1651,683,-507,-1481,-303,-45,261,413,-283
0,247678,-1651,686,-510,-1491,-304,-43,261,413,-283
0,247685,-1651,686,-510,-1491,-304,-43,261,413,-283
0,247691,-1651,686,-510,-1491,-304,-43,261,413,-283
0,247696,-1651,686,-510,-1491,-304,-43,261,413,-283
0,247702,-1651,687,-508,-1482,-309,-42,261,413,-283
0,247707,-1651,687,-508,-1482,-309,-42,261,413,-283
0,247713,-1651,687,-508,-1482,-309,-42,261,413,-283
0,247718,-1652,686,-511,-1491,-304,-43,261,413,-283
0,247724,-1652,686,-511,-1491,-304,-43,261,413,-283
0,247730,-1652,686,-511,-1491,-304,-43,261,413,-283
0,247735,-1652,686,-511,-1491,-304,-43,261,413,-283
0,247740,-1649,688,-509,-1496,-311,-42,258,410,-280
0,247746,-1649,688,-509,-1496,-311,-42,258,410,-280
0,247751,-1649,688,-509,-1496,-311,-42,258,410,-280
0,247757,-1650,685,-507,-1487,-318,-36,258,410,-280
0,247762,-1650,685,-507,-1487,-318,-36,258,410,-280
0,247768,-1650,685,-507,-1487,-318,-36,258,410,-280
0,247773,-1650,685,-507,-1487,-318,-36,258,410,-280
0,247779,-1648,686,-507,-1489,-316,-42,258,410,-280
0,247784,-1648,686,-507,-1489,-316,-42,258,410,-280
0,247789,-1648,686,-507,-1489,-316,-42,258,410,-280
0,247795,-1648,686,-507,-1489,-316,-42,258,410,-280
0,247800,-1652,683,-504,-1496,-311,-41,258,410,-280
0,247806,-1652,683,-504,-1496,-311,-41,258,410,-280
0,247812,-1652,683,-504,-1496,-311,-41,258,410,-280
0,247817,-1652,686,-510,-1496,-311,-43,258,410,-280
0,247823,-1652,686,-510,-1496,-311,-43,258,410,-280
0,247828,-1652,686,-510,-1496,-311,-43,258,410,-280
0,247833,-1652,686,-510,-1496,-311,-43,258,410,-280
0,247839,-1652,688,-509,-1493,-304,-41,258,410,-280
0,247844,-1652,688,-509,-1493,-304,-41,258,410,-280
0,247849,-1652,688,-509,-1493,-304,-41,258,410,-280
0,247855,-1652,688,-509,-1493,-304,-41,258,410,-280
0,247861,-1648,687,-506,-1489,-308,-47,265,407,-281
0,247866,-1648,687,-506,-1489,-308,-47,265,407,-281
0,247872,-1648,687,-506,-1489,-308,-47,265,407,-281
0,247877,-1650,688,-508,-1492,-296,-34,265,407,-281
0,247882,-1650,688,-508,-1492,-296,-34,265,407,-281
0,247888,-1650,688,-508,-1492,-296,-34,265,407,-281
0,247894,-1650,688,-508,-1492,-296,-34,265,407,-281
0,247900,-1649,684,-501,-1491,-304,-39,265,407,-281
0,247906,-1649,684,-501,-1491,-304,-39,265,407,-281
0,247911,-1649,684,-501,-1491,-304,-39,265,407,-281
0,247917,-1649,684,-501,-1491,-304,-39,265,407,-281
0,247922,-1650,689,-509,-1490,-306,-44,265,407,-281
0,247927,-1650,689,-509,-1490,-306,-44,265,407,-281
0,247932,-1650,689,-509,-1490,-306,-44,265,407,-281
0,247938,-1649,685,-511,-1499,-304,-50,265,407,-281
0,247943,-1649,685,-511,-1499,-304,-50,265,407,-281
0,247948,-1649,685,-511,-1499,-304,-50,265,407,-281
0,247953,-1649,685,-511,-1499,-304,-50,265,407,-281
0,247959,-1650,683,-503,-1494,-307,-45,265,407,-281
0,247964,-1650,683,-503,-1494,-307,-45,265,407,-281
0,247970,-1650,683,-503,-1494,-307,-45,265,407,-281
0,247976,-1650,683,-503,-1494,-307,-45,265,407,-281
0,247982,-1648,687,-514,-1495,-305,-41,265,407,-281
0,247987,-1648,687,-514,-1495,-305,-41,265,407,-281
0,247992,-1648,687,-514,-1495,-305,-41,265,407,-281
0,247997,-1651,686,-515,-1491,-307,-40,266,402,-268
0,248003,-1651,686,-515,-1491,-307,-40,266,402,-268
0,248008,-1651,686,-515,-1491,-307,-40,266,402,-268
0,248013,-1651,686,-515,-1491,-307,-40,266,402,-268
0,248018,-1652,686,-510,-1493,-307,-44,266,402,-268
0,248024,-1652,686,-510,-1493,-307,-44,266,402,-268
0,248030,-1652,686,-510,-1493,-307,-44,266,402,-268
0,248035,-1652,686,-510,-1493,-307,-44,266,402,-268
0,248041,-1650,685,-506,-1489,-310,-44,266,402,-268
0,248046,-1650,685,-506,-1489,-310,-44,266,402,-268
0,248052,-1650,685,-506,-1489,-310,-44,266,402,-268
0,248057,-1651,686,-506,-1493,-317,-44,266,402,-268
0,248062,-1651,686,-506,-1493,-317,-44,266,402,-268
0,248068,-1651,686,-506,-1493,-317,-44,266,402,-268
0,248074,-1651,686,-506,-1493,-317,-44,266,402,-268
0,248080,-1650,685,-503,-1494,-309,-42,266,402,-268
0,248085,-1650,685,-503,-1494,-309,-42,266,402,-268
0,248090,-1650,685,-503,-1494,-309,-42,266,402,-268
0,248095,-1650,685,-503,-1494,-309,-42,266,402,-268
0,248101,-1651,687,-502,-1489,-306,-46,266,402,-268
0,248107,-1651,687,-502,-1489,-306,-46,266,402,-268
0,248113,-1651,687,-502,-1489,-306,-46,266,402,-268
0,248118,-1649,687,-504,-1490,-308,-43,268,400,-280
0,248123,-1649,687,-504,-1490,-308,-43,268,400,-280
0,248129,-1649,687,-504,-1490,-308,-43,268,400,-280
0,248134,-1649,687,-504,-1490,-308,-43,268,400,-280
0,248139,-1649,686,-505,-1493,-304,-42,268,400,-280
0,248144,-1649,686,-505,-1493,-304,-42,268,400,-280
0,248151,-1649,686,-505,-1493,-304,-42,268,400,-280
0,248156,-1649,686,-505,-1493,-304,-42,268,400,-280
0,248161,-1648,686,-505,-1493,-302,-43,268,400,-280
0,248166,-1648,686,-505,-1493,-302,-43,268,400,-280
0,248172,-1648,686,-505,-1493,-302,-43,268,400,-280
0,248177,-1650,686,-507,-1491,-308,-44,268,400,-280
0,248183,-1650,686,-507,-1491,-308,-44,268,400,-280
0,248189,-1650,686,-507,-1491,-308,-44,268,400,-280
0,248195,-1650,686,-507,-1491,-308,-44,268,400,-280
0,248200,-1648,685,-509,-1486,-307,-43,268,400,-280
0,248206,-1648,685,-509,-1486,-307,-43,268,400,-280
0,248211,-1648,685,-509,-1486,-307,-43,268,400,-280
0,248216,-1648,685,-509,-1486,-307,-43,268,400,-280
0,248222,-1652,686,-508,-1485,-309,-43,268,400,-280
0,248227,-1652,686,-508,-1485,-309,-43,268,400,-280
0,248233,-1652,686,-508,-1485,-309,-43,268,400,-280
0,248239,-1650,684,-508,-1487,-302,-35,263,399,-277
0,248245,-1650,684,-508,-1487,-302,-35,263,399,-277
0,248250,-1650,684,-508,-1487,-302,-35,263,399,-277
0,248255,-1650,684,-508,-1487,-302,-35,263,399,-277
0,248260,-1650,686,-506,-1487,-310,-35,263,399,-277
0,248265,-1650,686,-506,-1487,-310,-35,263,399,-277
0,248271,-1650,686,-506,-1487,-310,-35,263,399,-277
0,248275,-1650,686,-506,-1487,-310,-35,263,399,-277
0,248282,-1652,687,-506,-1489,-309,-42,263,399,-277
0,248288,-1652,687,-506,-1489,-309,-42,263,399,-277
0,248293,-1652,687,-506,-1489,-309,-42,263,399,-277
0,248299,-1649,685,-507,-1493,-309,-43,263,399,-277
0,248304,-1649,685,-507,-1493,-309,-43,263,399,-277
0,248309,-1649,685,-507,-1493,-309,-43,263,399,-277
0,248315,-1649,685,-507,-1493,-309,-43,263,399,-277
0,248321,-1647,684,-507,-1497,-306,-43,263,399,-277
0,248326,-1647,684,-507,-1497,-306,-43,263,399,-277
0,248332,-1647,684,-507,-1497,-306,-43,263,399,-277
0,248337,-1647,686,-511,-1497,-314,-40,263,399,-277
0,248342,-1647,686,-511,-1497,-314,-40,263,399,-277
0,248348,-1647,686,-511,-1497,-314,-40,263,399,-277
0,248353,-1647,686,-511,-1497,-314,-40,263,399,-277
0,248359,-1650,688,-508,-1492,-311,-42,259,411,-283
0,248365,-1650,688,-508,-1492,-311,-42,259,411,-283
0,248371,-1650,688,-508,-1492,-311,-42,259,411,-283
0,248376,-1650,688,-508,-1492,-311,-42,259,411,-283
0,248381,-1651,687,-506,-1488,-308,-41,259,411,-283
0,248387,-1651,687,-506,-1488,-308,-41,259,411,-283
0,248392,-1651,687,-506,-1488,-308,-41,259,411,-283
0,248398,-1650,686,-505,-1481,-312,-46,259,411,-283
0,248403,-1650,686,-505,-1481,-312,-46,259,411,-283
0,248410,-1650,686,-505,-1481,-312,-46,259,411,-283
0,248415,-1650,686,-505,-1481,-312,-46,259,411,-283
0,248420,-1651,686,-511,-1483,-310,-46,259,411,-283
0,248425,-1651,686,-511,-1483,-310,-46,259,411,-283
0,248431,-1651,686,-511,-1483,-310,-46,259,411,-283
0,248436,-1651,686,-511,-1483,-310,-46,259,411,-283
0,248442,-1652,684,-508,-1492,-307,-43,259,411,-283
0,248446,-1652,684,-508,-1492,-307,-43,259,411,-283
0,248452,-1652,684,-508,-1492,-307,-43,259,411,-283
0,248458,-1652,684,-511,-1492,-305,-45,259,411,-283
0,248464,-1652,684,-511,-1492,-305,-45,259,411,-283
0,248469,-1652,684,-511,-1492,-305,-45,259,411,-283
0,248474,-1652,684,-511,-1492,-305,-45,259,411,-283
0,248479,-1651,684,-507,-1487,-303,-52,264,402,-280
0,248484,-1651,684,-507,-1487,-303,-52,264,402,-280
0,248492,-1651,684,-507,-1487,-303,-52,264,402,-280
0,248498,-1650,687,-505,-1484,-309,-48,264,402,-280
0,248503,-1650,687,-505,-1484,-309,-48,264,402,-280
0,248508,-1650,687,-505,-1484,-309,-48,264,402,-280
0,248513,-1650,687,-505,-1484,-309,-48,264,402,-280
0,248519,-1647,687,-511,-1487,-305,-44,264,402,-280
0,248525,-1647,687,-511,-1487,-305,-44,264,402,-280
0,248530,-1647,687,-511,-1487,-305,-44,264,402,-280
0,248536,-1647,687,-511,-1487,-305,-44,264,402,-280
0,248542,-1653,686,-505,-1487,-308,-46,264,402,-280
0,248547,-1653,686,-505,-1487,-308,-46,264,402,-280
0,248552,-1653,686,-505,-1487,-308,-46,264,402,-280
0,248557,-1650,686,-509,-1485,-314,-45,264,402,-280
0,248562,-1650,686,-509,-1485,-314,-45,264,402,-280
0,248567,-1650,686,-509,-1485,-314,-45,264,402,-280
0,248573,-1650,686,-509,-1485,-314,-45,264,402,-280
0,248579,-1647,686,-506,-1496,-311,-43,264,402,-280
0,248585,-1647,686,-506,-1496,-311,-43,264,402,-280
0,248590,-1647,686,-506,-1496,-311,-43,264,402,-280
0,248596,-1647,686,-506,-1496,-311,-43,264,402,-280
0,248601,-1649,686,-507,-1502,-304,-43,264,402,-280
0,248606,-1649,686,-507,-1502,-304,-43,264,402,-280
0,248611,-1649,686,-507,-1502,-304,-43,264,402,-280
0,248617,-1649,686,-507,-1502,-304,-43,264,402,-280
0,248623,-1655,686,-505,-1501,-300,-38,265,399,-283
0,248628,-1655,686,-505,-1501,-300,-38,265,399,-283
0,248634,-1655,686,-505,-1501,-300,-38,265,399,-283
0,248640,-1653,686,-510,-1491,-305,-43,265,399,-283
0,248645,-1653,686,-510,-1491,-305,-43,265,399,-283
0,248650,-1653,686,-510,-1491,-305,-43,265,399,-283
0,248655,-1653,686,-510,-1491,-305,-43,265,399,-283
0,248662,-1651,688,-508,-1496,-306,-41,265,399,-283
0,248667,-1651,688,-508,-1496,-306,-41,265,399,-283
0,248672,-1651,688,-508,-1496,-306,-41,265,399,-283
0,248677,-1651,688,-508,-1496,-306,-41,265,399,-283
0,248682,-1653,685,-509,-1493,-304,-41,265,399,-283
0,248687,-1653,685,-509,-1493,-304,-41,265,399,-283
0,248693,-1653,685,-509,-1493,-304,-41,265,399,-283
0,248698,-1650,687,-504,-1496,-311,-44,265,399,-283
0,248704,-1650,687,-504,-1496,-311,-44,265,399,-283
0,248709,-1650,687,-504,-1496,-311,-44,265,399,-283
0,248715,-1650,687,-504,-1496,-311,-44,265,399,-283
0,248720,-1652,686,-509,-1490,-313,-44,265,399,-283
0,248726,-1652,686,-509,-1490,-313,-44,265,399,-283
0,248731,-1652,686,-509,-1490,-313,-44,265,399,-283
0,248736,-1652,686,-509,-1490,-313,-44,265,399,-283
0,248742,-1654,688,-508,-1493,-312,-47,262,412,-270
0,248748,-1654,688,-508,-1493,-312,-47,262,412,-270
0,248754,-1654,688,-508,-1493,-312,-47,262,412,-270
0,248759,-1651,683,-507,-1485,-314,-45,262,412,-270
0,248765,-1651,683,-507,-1485,-314,-45,262,412,-270
0,248770,-1651,683,-507,-1485,-314,-45,262,412,-270
0,248775,-1651,683,-507,-1485,-314,-45,262,412,-270
0,248781,-1652,685,-509,-1490,-311,-51,262,412,-270
0,248786,-1652,685,-509,-1490,-311,-51,262,412,-270
0,248792,-1652,685,-509,-1490,-311,-51,262,412,-270
0,248798,-1650,683,-512,-1487,-305,-44,262,412,-270
0,248803,-1650,683,-512,-1487,-305,-44,262,412,-270
0,248809,-1650,683,-512,-1487,-305,-44,262,412,-270
0,248814,-1650,683,-512,-1487,-305,-44,262,412,-270
0,248820,-1647,684,-511,-1488,-306,-38,262,412,-270
0,248825,-1647,684,-511,-1488,-306,-38,262,412,-270
0,248832,-1647,684,-511,-1488,-306,-38,262,412,-270
0,248837,-1647,684,-511,-1488,-306,-38,262,412,-270
0,248842,-1651,685,-508,-1493,-307,-38,262,412,-270
0,248847,-1651,685,-508,-1493,-307,-38,262,412,-270
0,248853,-1651,685,-508,-1493,-307,-38,262,412,-270
0,248858,-1651,685,-509,-1490,-307,-42,262,398,-280
0,248864,-1651,685,-509,-1490,-307,-42,262,398,-280
0,248869,-1651,685,-509,-1490,-307,-42,262,398,-280
0,248875,-1651,685,-509,-1490,-307,-42,262,398,-280
0,248880,-1651,686,-508,-1491,-304,-40,262,398,-280
0,248886,-1651,686,-508,-1491,-304,-40,262,398,-280
0,248892,-1651,686,-508,-1491,-304,-40,262,398,-280
0,248897,-1653,685,-502,-1489,-308,-40,262,398,-280
0,248903,-1653,685,-502,-1489,-308,-40,262,398,-280
0,248908,-1653,685,-502,-1489,-308,-40,262,398,-280
0,248914,-1653,685,-502,-1489,-308,-40,262,398,-280
0,248919,-1652,688,-510,-1486,-310,-50,262,398,-280
0,248925,-1652,688,-510,-1486,-310,-50,262,398,-280
0,248930,-1652,688,-510,-1486,-310,-50,262,398,-280
0,248936,-1652,688,-510,-1486,-310,-50,262,398,-280
0,248941,-1650,688,-508,-1494,-312,-51,262,398,-280
0,248947,-1650,688,-508,-1494,-312,-51,262,398,-280
0,248952,-1650,688,-508,-1494,-312,-51,262,398,-280
0,248957,-1646,687,-505,-1492,-311,-40,262,398,-280
0,248963,-1646,687,-505,-1492,-311,-40,262,398,-280
0,248969,-1646,687,-505,-1492,-311,-40,262,398,-280
0,248974,-1646,687,-505,-1492,-311,-40,262,398,-280
0,248980,-1648,684,-509,-1490,-312,-43,266,406,-278
0,248985,-1648,684,-509,-1490,-312,-43,266,406,-278
0,248990,-1648,684,-509,-1490,-312,-43,266,406,-278
0,248996,-1648,684,-509,-1490,-312,-43,266,406,-278
0,249003,-1652,688,-505,-1491,-312,-40,266,406,-278
0,249009,-1652,688,-505,-1491,-312,-40,266,406,-278
0,249014,-1652,688,-505,-1491,-312,-40,266,406,-278
0,249020,-1650,685,-500,-1496,-310,-44,266,406,-278
0,249025,-1650,685,-500,-1496,-310,-44,266,406,-278
0,249030,-1650,685,-500,-1496,-310,-44,266,406,-278
0,249036,-1650,685,-500,-1496,-310,-44,266,406,-278
0,249041,-1652,685,-511,-1494,-317,-35,266,406,-278
0,249047,-1652,685,-511,-1494,-317,-35,266,406,-278
0,249053,-1652,685,-511,-1494,-317,-35,266,406,-278
0,249058,-1650,682,-508,-1490,-308,-37,266,406,-278
0,249063,-1650,682,-508,-1490,-308,-37,266,406,-278
0,249068,-1650,682,-508,-1490,-308,-37,266,406,-278
0,249074,-1650,682,-508,-1490,-308,-37,266,406,-278
0,249080,-1650,685,-512,-1490,-309,-41,266,406,-278
0,249085,-1650,685,-512,-1490,-309,-41,266,406,-278
0,249092,-1650,685,-512,-1490,-309,-41,266,406,-278
0,249097,-1650,685,-512,-1490,-309,-41,266,406,-278
0,249103,-1650,685,-505,-1492,-307,-40,260,406,-282
0,249108,-1650,685,-505,-1492,-307,-40,260,406,-282
0,249113,-1650,685,-505,-1492,-307,-40,260,406,-282
0,249119,-1652,684,-508,-1491,-308,-52,260,406,-282
0,249124,-1652,684,-508,-1491,-308,-52,260,406,-282
0,249131,-1652,684,-508,-1491,-308,-52,260,406,-282
0,249136,-1652,684,-508,-1491,-308,-52,260,406,-282
0,249141,-1648,688,-505,-1491,-310,-49,260,406,-282
0,249147,-1648,688,-505,-1491,-310,-49,260,406,-282
0,249152,-1648,688,-505,-1491,-310,-49,260,406,-282
0,249158,-1649,691,-509,-1496,-312,-48,260,406,-282
0,249163,-1649,691,-509,-1496,-312,-48,260,406,-282
0,249169,-1649,691,-509,-1496,-312,-48,260,406,-282
0,249175,-1649,691,-509,-1496,-312,-48,260,406,-282
0,249180,-1650,685,-511,-1489,-305,-54,260,406,-282
0,249185,-1650,685,-511,-1489,-305,-54,260,406,-282
0,249191,-1650,685,-511,-1489,-305,-54,260,406,-282
0,249196,-1650,685,-511,-1489,-305,-54,260,406,-282
0,249201,-1648,687,-510,-1485,-310,-48,260,406,-282
0,249206,-1648,687,-510,-1485,-310,-48,260,406,-282
0,249212,-1648,687,-510,-1485,-310,-48,260,406,-282
0,249218,-1652,687,-511,-1489,-311,-39,260,406,-282
0,249223,-1652,687,-511,-1489,-311,-39,260,406,-282
0,249229,-1652,687,-511,-1489,-311,-39,260,406,-282
0,249234,-1652,687,-511,-1489,-311,-39,260,406,-282
0,249240,-1649,685,-508,-1486,-303,-45,268,388,-276
0,249245,-1649,685,-508,-1486,-303,-45,268,388,-276
0,249251,-1649,685,-508,-1486,-303,-45,268,388,-276
0,249256,-1649,685,-508,-1486,-303,-45,268,388,-276
0,249263,-1651,686,-511,-1492,-311,-43,268,388,-276
0,249269,-1651,686,-511,-1492,-311,-43,268,388,-276
0,249275,-1651,686,-511,-1492,-311,-43,268,388,-276
0,249281,-1652,689,-505,-1492,-315,-48,268,388,-276
0,249285,-1652,689,-505,-1492,-315,-48,268,388,-276
0,249291,-1652,689,-505,-1492,-315,-48,268,388,-276
0,249296,-1652,689,-505,-1492,-315,-48,268,388,-276
0,249302,-1650,685,-508,-1488,-311,-43,268,388,-276
0,249308,-1650,685,-508,-1488,-311,-43,268,388,-276
0,249313,-1650,685,-508,-1488,-311,-43,268,388,-276
0,249318,-1649,686,-509,-1494,-309,-44,268,388,-276
0,249323,-1649,686,-509,-1494,-309,-44,268,388,-276
0,249328,-1649,686,-509,-1494,-309,-44,268,388,-276
0,249334,-1649,686,-509,-1494,-309,-44,268,388,-276
0,249339,-1650,685,-511,-1486,-310,-41,268,388,-276
0,249346,-1650,685,-511,-1486,-310,-41,268,388,-276
0,249351,-1650,685,-511,-1486,-310,-41,268,388,-276
0,249357,-1650,685,-511,-1486,-310,-41,268,388,-276
0,249362,-1648,683,-502,-1483,-303,-39,265,405,-285
0,249367,-1648,683,-502,-1483,-303,-39,265,405,-285
0,249372,-1648,683,-502,-1483,-303,-39,265,405,-285
0,249378,-1651,685,-507,-1494,-305,-47,265,405,-285
0,249383,-1651,685,-507,-1494,-305,-47,265,405,-285
0,249389,-1651,685,-507,-1494,-305,-47,265,405,-285
0,249395,-1651,685,-507,-1494,-305,-47,265,405,-285
0,249400,-1652,687,-507,-1497,-303,-46,265,405,-285
0,249406,-1652,687,-507,-1497,-303,-46,265,405,-285
0,249411,-1652,687,-507,-1497,-303,-46,265,405,-285
0,249416,-1652,687,-507,-1497,-303,-46,265,405,-285
0,249421,-1648,685,-503,-1495,-303,-43,265,405,-285
0,249426,-1648,685,-503,-1495,-303,-43,265,405,-285
0,249433,-1648,685,-503,-1495,-303,-43,265,405,-285
0,249438,-1648,685,-503,-1495,-303,-43,265,405,-285
0,249443,-1649,686,-505,-1487,-307,-43,265,405,-285
0,249449,-1649,686,-505,-1487,-307,-43,265,405,-285
0,249454,-1649,686,-505,-1487,-307,-43,265,405,-285
0,249459,-1650,686,-510,-1488,-313,-45,265,405,-285
0,249464,-1650,686,-510,-1488,-313,-45,265,405,-285
0,249470,-1650,686,-510,-1488,-313,-45,265,405,-285
0,249476,-1650,686,-510,-1488,-313,-45,265,405,-285
0,249481,-1651,686,-510,-1490,-313,-53,251,407,-277
0,249487,-1651,686,-510,-1490,-313,-53,251,407,-277
0,249492,-1651,686,-510,-1490,-313,-53,251,407,-277
0,249497,-1651,686,-510,-1490,-313,-53,251,407,-277
0,249503,-1652,683,-508,-1494,-300,-49,251,407,-277
0,249508,-1652,683,-508,-1494,-300,-49,251,407,-277
0,249513,-1652,683,-508,-1494,-300,-49,251,407,-277
0,249520,-1651,684,-509,-1492,-301,-43,251,407,-277
0,249526,-1651,684,-509,-1492,-301,-43,251,407,-277
0,249531,-1651,684,-509,-1492,-301,-43,251,407,-277
0,249536,-1651,684,-509,-1492,-301,-43,251,407,-277
0,249542,-1652,686,-505,-1485,-309,-44,251,407,-277
0,249547,-1652,686,-505,-1485,-309,-44,251,407,-277
0,249552,-1652,686,-505,-1485,-309,-44,251,407,-277
0,249561,-1650,685,-511,-1484,-311,-51,251,407,-277
0,249566,-1650,685,-511,-1484,-311,-51,251,407,-277
0,249572,-1650,685,-511,-1484,-311,-51,251,407,-277
0,249577,-1650,685,-511,-1484,-311,-51,251,407,-277
0,249582,-1650,685,-510,-1485,-309,-46,251,407,-277
0,249587,-1650,685,-510,-1485,-309,-46,251,407,-277
0,249593,-1650,685,-510,-1485,-309,-46,251,407,-277
0,249598,-1649,684,-507,-1488,-310,-44,255,407,-275
0,249604,-1649,684,-507,-1488,-310,-44,255,407,-275
0,249610,-1649,684,-507,-1488,-310,-44,255,407,-275
0,249615,-1649,684,-507,-1488,-310,-44,255,407,-275
0,249621,-1649,685,-504,-1486,-314,-42,255,407,-275
0,249626,-1649,685,-504,-1486,-314,-42,255,407,-275
0,249632,-1649,685,-504,-1486,-314,-42,255,407,-275
0,249637,-1649,685,-504,-1486,-314,-42,255,407,-275
0,249643,-1653,686,-504,-1489,-306,-47,255,407,-275
0,249648,-1653,686,-504,-1489,-306,-47,255,407,-275
0,249654,-1653,686,-504,-1489,-306,-47,255,407,-275
0,249659,-1649,684,-510,-1489,-308,-51,255,407,-275
0,249665,-1649,684,-510,-1489,-308,-51,255,407,-275
0,249670,-1649,684,-510,-1489,-308,-51,255,407,-275
0,249676,-1649,684,-510,-1489,-308,-51,255,407,-275
0,249680,-1649,687,-511,-1483,-310,-41,255,407,-275
0,249687,-1649,687,-511,-1483,-310,-41,255,407,-275
0,249692,-1649,687,-511,-1483,-310,-41,255,407,-275
0,249698,-1649,687,-511,-1483,-310,-41,255,407,-275
0,249703,-1649,688,-510,-1483,-307,-37,255,407,-275
0,249709,-1649,688,-510,-1483,-307,-37,255,407,-275
0,249714,-1649,688,-510,-1483,-307,-37,255,407,-275
0,249720,-1651,686,-507,-1483,-308,-40,255,407,-275
0,249725,-1651,686,-507,-1483,-308,-40,255,407,-275
0,249731,-1651,686,-507,-1483,-308,-40,255,407,-275
0,249736,-1651,686,-507,-1483,-308,-40,255,407,-275
0,249742,-1651,686,-507,-1483,-308,-40,255,407,-275
0,249748,-1651,686,-507,-1483,-308,-40,255,407,-275
0,249753,-1651,686,-507,-1483,-308,-40,255,407,-275
0,249758,-1652,687,-509,-1487,-308,-45,255,407,-275
0,249764,-1652,687,-509,-1487,-308,-45,255,407,-275
0,249769,-1652,687,-509,-1487,-308,-45,255,407,-275
0,249775,-1652,687,-509,-1487,-308,-45,255,407,-275
0,249780,-1648,688,-509,-1487,-305,-45,255,407,-275
0,249786,-1648,688,-509,-1487,-305,-45,255,407,-275
0,249791,-1648,688,-509,-1487,-305,-45,255,407,-275
0,249797,-1648,688,-509,-1487,-305,-45,255,407,-275
0,249802,-1651,688,-504,-1495,-303,-48,255,407,-275
0,249807,-1651,688,-504,-1495,-303,-48,255,407,-275
0,249812,-1651,688,-504,-1495,-303,-48,255,407,-275
0,249819,-1652,685,-505,-1495,-310,-47,255,407,-275
0,249824,-1652,685,-505,-1495,-310,-47,255,407,-275
0,249830,-1652,685,-505,-1495,-310,-47,255,407,-275
0,249835,-1652,685,-505,-1495,-310,-47,255,407,-275
0,249840,-1650,686,-503,-1491,-313,-40,255,407,-275
0,249845,-1650,686,-503,-1491,-313,-40,255,407,-275
0,249851,-1650,686,-503,-1491,-313,-40,255,407,-275
0,249857,-1650,686,-503,-1491,-313,-40,255,407,-275
0,249863,-1651,685,-505,-1485,-307,-46,264,400,-272
0,249868,-1651,685,-505,-1485,-307,-46,264,400,-272
0,249874,-1651,685,-505,-1485,-307,-46,264,400,-272
0,249879,-1650,683,-511,-1486,-311,-44,264,400,-272
0,249884,-1650,683,-511,-1486,-311,-44,264,400,-272
0,249889,-1650,683,-511,-1486,-311,-44,264,400,-272
0,249895,-1650,683,-511,-1486,-311,-44,264,400,-272
0,249901,-1650,683,-511,-1486,-311,-44,264,400,-272
0,249907,-1650,683,-511,-1486,-311,-44,264,400,-272
0,249912,-1650,683,-511,-1486,-311,-44,264,400,-272
0,249917,-1650,683,-511,-1486,-311,-44,264,400,-272
0,249922,-1653,685,-512,-1492,-307,-41,264,400,-272
0,249928,-1653,685,-512,-1492,-307,-41,264,400,-272
0,249933,-1653,685,-512,-1492,-307,-41,264,400,-272
0,249939,-1653,686,-507,-1490,-310,-45,264,400,-272
0,249945,-1653,686,-507,-1490,-310,-45,264,400,-272
0,249950,-1653,686,-507,-1490,-310,-45,264,400,-272
0,249956,-1653,686,-507,-1490,-310,-45,264,400,-272
0,249961,-1648,683,-505,-1487,-308,-38,264,400,-272
0,249966,-1648,683,-505,-1487,-308,-38,264,400,-272
0,249971,-1648,683,-505,-1487,-308,-38,264,400,-272
0,249976,-1648,683,-505,-1487,-308,-38,264,400,-272
0,249982,-1652,687,-509,-1490,-306,-40,262,408,-278
0,249988,-1652,687,-509,-1490,-306,-40,262,408,-278
0,249993,-1652,687,-509,-1490,-306,-40,262,408,-278
0,249998,-1649,689,-507,-1490,-308,-52,262,408,-278
0,250004,-1649,689,-507,-1490,-308,-52,262,408,-278
0,250009,-1649,689,-507,-1490,-308,-52,262,408,-278
0,250014,-1649,689,-507,-1490,-308,-52,262,408,-278
0,250020,-1650,686,-509,-1489,-303,-51,262,408,-278
0,250025,-1650,686,-509,-1489,-303,-51,262,408,-278
0,250031,-1650,686,-509,-1489,-303,-51,262,408,-278
0,250037,-1650,686,-509,-1489,-303,-51,262,408,-278
0,250042,-1651,684,-506,-1487,-307,-47,262,408,-278
0,250047,-1651,684,-506,-1487,-307,-47,262,408,-278
0,250052,-1651,684,-506,-1487,-307,-47,262,408,-278
0,250058,-1650,685,-505,-1485,-298,-46,262,408,-278
0,250063,-1650,685,-505,-1485,-298,-46,262,408,-278
0,250068,-1650,685,-505,-1485,-298,-46,262,408,-278
0,250075,-1650,685,-505,-1485,-298,-46,262,408,-278
0,250080,-1650,687,-511,-1491,-307,-43,262,408,-278
0,250085,-1650,687,-511,-1491,-307,-43,262,408,-278
0,250090,-1650,687,-511,-1491,-307,-43,262,408,-278
0,250095,-1650,687,-511,-1491,-307,-43,262,408,-278
0,250101,-1651,685,-508,-1487,-311,-43,262,406,-282
0,250106,-1651,685,-508,-1487,-311,-43,262,406,-282
0,250113,-1651,685,-508,-1487,-311,-43,262,406,-282
0,250118,-1651,685,-508,-1487,-311,-43,262,406,-282
0,250123,-1651,687,-506,-1493,-309,-41,262,406,-282
0,250129,-1651,687,-506,-1493,-309,-41,262,406,-282
0,250134,-1651,687,-506,-1493,-309,-41,262,406,-282
0,250140,-1652,686,-504,-1486,-313,-47,262,406,-282
0,250145,-1652,686,-504,-1486,-313,-47,262,406,-282
0,250150,-1652,686,-504,-1486,-313,-47,262,406,-282
0,250156,-1652,686,-504,-1486,-313,-47,262,406,-282
0,250162,-1649,689,-507,-1486,-312,-39,262,406,-282
0,250167,-1649,689,-507,-1486,-312,-39,262,406,-282
0,250173,-1649,689,-507,-1486,-312,-39,262,406,-282
0,250179,-1650,690,-507,-1489,-310,-45,262,406,-282
0,250183,-1650,690,-507,-1489,-310,-45,262,406,-282
0,250189,-1650,690,-507,-1489,-310,-45,262,406,-282
0,250194,-1650,690,-507,-1489,-310,-45,262,406,-282
0,250200,-1650,685,-513,-1481,-308,-47,262,406,-282
0,250205,-1650,685,-513,-1481,-308,-47,262,406,-282
0,250210,-1650,685,-513,-1481,-308,-47,262,406,-282
0,250216,-1650,685,-513,-1481,-308,-47,262,406,-282
0,250220,-1652,684,-510,-1485,-300,-42,261,415,-275
0,250226,-1652,684,-510,-1485,-300,-42,261,415,-275
0,250231,-1652,684,-510,-1485,-300,-42,261,415,-275
0,250237,-1652,684,-510,-1485,-300,-42,261,415,-275
0,250243,-1650,687,-504,-1489,-308,-44,261,415,-275
0,250248,-1650,687,-504,-1489,-308,-44,261,415,-275
0,250254,-1650,687,-504,-1489,-308,-44,261,415,-275
0,250259,-1649,684,-509,-1486,-308,-46,261,415,-275
0,250264,-1649,684,-509,-1486,-308,-46,261,415,-275
0,250269,-1649,684,-509,-1486,-308,-46,261,415,-275
0,250275,-1649,684,-509,-1486,-308,-46,261,415,-275
0,250280,-1651,688,-511,-1484,-306,-48,261,415,-275
0,250287,-1651,688,-511,-1484,-306,-48,261,415,-275
0,250292,-1651,688,-511,-1484,-306,-48,261,415,-275
0,250298,-1651,688,-511,-1484,-306,-48,261,415,-275
0,250304,-1651,685,-510,-1491,-303,-49,261,415,-275
0,250310,-1651,685,-510,-1491,-303,-49,261,415,-275
0,250315,-1651,685,-510,-1491,-303,-49,261,415,-275
0,250321,-1651,686,-508,-1490,-307,-49,261,415,-275
0,250327,-1651,686,-508,-1490,-307,-49,261,415,-275
0,250332,-1651,686,-508,-1490,-307,-49,261,415,-275
0,250337,-1651,686,-508,-1490,-307,-49,261,415,-275
0,250343,-1652,688,-503,-1490,-307,-42,261,415,-275
0,250348,-1652,688,-503,-1490,-307,-42,261,415,-275
0,250354,-1652,688,-503,-1490,-307,-42,261,415,-275
0,250359,-1650,684,-509,-1491,-309,-48,264,400,-280
0,250364,-1650,684,-509,-1491,-309,-48,264,400,-280
0,250371,-1650,684,-509,-1491,-309,-48,264,400,-280
0,250376,-1650,684,-509,-1491,-309,-48,264,400,-280
0,250381,-1649,688,-504,-1485,-305,-47,264,400,-280
0,250387,-1649,688,-504,-1485,-305,-47,264,400,-280
0,250393,-1649,688,-504,-1485,-305,-47,264,400,-280
0,250398,-1651,686,-511,-1486,-301,-49,264,400,-280
0,250404,-1651,686,-511,-1486,-301,-49,264,400,-280
0,250409,-1651,686,-511,-1486,-301,-49,264,400,-280
0,250415,-1651,686,-511,-1486,-301,-49,264,400,-280
0,250421,-1649,685,-512,-1489,-306,-47,264,400,-280
0,250426,-1649,685,-512,-1489,-306,-47,264,400,-280
0,250432,-1649,685,-512,-1489,-306,-47,264,400,-280
0,250438,-1649,685,-512,-1489,-306,-47,264,400,-280
0,250443,-1647,683,-512,-1489,-305,-47,264,400,-280
0,250448,-1647,683,-512,-1489,-305,-47,264,400,-280
0,250454,-1647,683,-512,-1489,-305,-47,264,400,-280
0,250460,-1652,686,-511,-1484,-302,-49,264,400,-280
0,250465,-1652,686,-511,-1484,-302,-49,264,400,-280
0,250471,-1652,686,-511,-1484,-302,-49,264,400,-280
0,250477,-1652,686,-511,-1484,-302,-49,264,400,-280
0,250482,-1649,687,-506,-1476,-310,-46,255,407,-285
0,250488,-1649,687,-506,-1476,-310,-46,255,407,-285
0,250493,-1649,687,-506,-1476,-310,-46,255,407,-285
0,250500,-1652,683,-506,-1481,-308,-48,255,407,-285
0,250504,-1652,683,-506,-1481,-308,-48,255,407,-285
0,250510,-1652,683,-506,-1481,-308,-48,255,407,-285
0,250515,-1652,683,-506,-1481,-308,-48,255,407,-285
0,250521,-1650,687,-506,-1485,-308,-44,255,407,-285
0,250526,-1650,687,-506,-1485,-308,-44,255,407,-285
0,250532,-1650,687,-506,-1485,-308,-44,255,407,-285
0,250537,-1650,687,-506,-1485,-308,-44,255,407,-285
0,250543,-1652,686,-506,-1488,-307,-45,255,407,-285
0,250548,-1652,686,-506,-1488,-307,-45,255,407,-285
0,250554,-1652,686,-506,-1488,-307,-45,255,407,-285
0,250560,-1653,686,-508,-1488,-308,-46,255,407,-285
0,250565,-1653,686,-508,-1488,-308,-46,255,407,-285
0,250570,-1653,686,-508,-1488,-308,-46,255,407,-285
0,250576,-1653,686,-508,-1488,-308,-46,255,407,-285
0,250582,-1653,684,-506,-1484,-302,-49,255,407,-285
0,250588,-1653,684,-506,-1484,-302,-49,255,407,-285
0,250593,-1653,684,-506,-1484,-302,-49,255,407,-285
0,250599,-1653,686,-502,-1479,-305,-48,261,403,-285
0,250605,-1653,686,-502,-1479,-305,-48,261,403,-285
0,250610,-1653,686,-502,-1479,-305,-48,261,403,-285
0,250616,-1653,686,-502,-1479,-305,-48,261,403,-285
0,250621,-1647,686,-503,-1482,-307,-44,261,403,-285
0,250628,-1647,686,-503,-1482,-307,-44,261,403,-285
0,250634,-1647,686,-503,-1482,-307,-44,261,403,-285
0,250639,-1649,683,-508,-1491,-307,-44,261,403,-285
0,250644,-1649,683,-508,-1491,-307,-44,261,403,-285
0,250649,-1649,683,-508,-1491,-307,-44,261,403,-285
0,250654,-1649,683,-508,-1491,-307,-44,261,403,-285
0,250659,-1650,685,-506,-1490,-306,-47,261,403,-285
0,250665,-1650,685,-506,-1490,-306,-47,261,403,-285
0,250671,-1650,685,-506,-1490,-306,-47,261,403,-285
0,250677,-1650,685,-506,-1490,-306,-47,261,403,-285
0,250682,-1648,685,-506,-1490,-310,-43,261,403,-285
0,250688,-1648,685,-506,-1490,-310,-43,261,403,-285
0,250693,-1648,685,-506,-1490,-310,-43,261,403,-285
0,250698,-1649,687,-508,-1488,-312,-47,261,403,-285
0,250704,-1649,687,-508,-1488,-312,-47,261,403,-285
0,250710,-1649,687,-508,-1488,-312,-47,261,403,-285
0,250716,-1649,687,-508,-1488,-312,-47,261,403,-285
0,250721,-1649,686,-510,-1493,-311,-40,266,402,-284
0,250726,-1649,686,-510,-1493,-311,-40,266,402,-284
0,250732,-1649,686,-510,-1493,-311,-40,266,402,-284
0,250737,-1649,686,-510,-1493,-311,-40,266,402,-284
0,250743,-1648,688,-503,-1496,-316,-44,266,402,-284
0,250748,-1648,688,-503,-1496,-316,-44,266,402,-284
0,250754,-1648,688,-503,-1496,-316,-44,266,402,-284
0,250759,-1651,687,-507,-1490,-306,-46,266,402,-284
0,250764,-1651,687,-507,-1490,-306,-46,266,402,-284
0,250769,-1651,687,-507,-1490,-306,-46,266,402,-284
0,250775,-1651,687,-507,-1490,-306,-46,266,402,-284
0,250781,-1650,686,-505,-1489,-307,-44,266,402,-284
0,250786,-1650,686,-505,-1489,-307,-44,266,402,-284
0,250791,-1650,686,-505,-1489,-307,-44,266,402,-284
0,250797,-1650,686,-505,-1489,-307,-44,266,402,-284
0,250803,-1651,686,-509,-1490,-305,-47,266,402,-284
0,250808,-1651,686,-509,-1490,-305,-47,266,402,-284
0,250813,-1651,686,-509,-1490,-305,-47,266,402,-284
0,250819,-1651,685,-513,-1488,-305,-48,266,402,-284
0,250824,-1651,685,-513,-1488,-305,-48,266,402,-284
0,250830,-1651,685,-513,-1488,-305,-48,266,402,-284
0,250835,-1651,685,-513,-1488,-305,-48,266,402,-284
0,250841,-1651,686,-508,-1490,-307,-52,253,403,-273
0,250847,-1651,686,-508,-1490,-307,-52,253,403,-273
0,250852,-1651,686,-508,-1490,-307,-52,253,403,-273
0,250858,-1651,686,-508,-1490,-307,-52,253,403,-273
0,250863,-1649,683,-508,-1494,-305,-49,253,403,-273
0,250868,-1649,683,-508,-1494,-305,-49,253,403,-273
0,250874,-1649,683,-508,-1494,-305,-49,253,403,-273
0,250880,-1649,683,-508,-1494,-305,-49,253,403,-273
0,250885,-1649,683,-508,-1494,-305,-49,253,403,-273
0,250891,-1649,683,-508,-1494,-305,-49,253,403,-273
0,250896,-1649,683,-508,-1494,-305,-49,253,403,-273
0,250901,-1652,686,-508,-1490,-305,-49,253,403,-273
0,250907,-1652,686,-508,-1490,-305,-49,253,403,-273
0,250912,-1652,686,-508,-1490,-305,-49,253,403,-273
0,250917,-1652,686,-508,-1490,-305,-49,253,403,-273
0,250923,-1653,683,-511,-1489,-311,-50,253,403,-273
0,250929,-1653,683,-511,-1489,-311,-50,253,403,-273
0,250934,-1653,683,-511,-1489,-311,-50,253,403,-273
0,250939,-1654,686,-509,-1489,-306,-40,253,403,-273
0,250945,-1654,686,-509,-1489,-306,-40,253,403,-273
0,250950,-1654,686,-509,-1489,-306,-40,253,403,-273
0,250956,-1654,686,-509,-1489,-306,-40,253,403,-273
0,250961,-1650,685,-507,-1485,-307,-42,253,403,-273
0,250968,-1650,685,-507,-1485,-307,-42,253,403,-273
0,250973,-1650,685,-507,-1485,-307,-42,253,403,-273
0,250979,-1652,687,-505,-1487,-309,-44,257,407,-271
0,250985,-1652,687,-505,-1487,-309,-44,257,407,-271
0,250990,-1652,687,-505,-1487,-309,-44,257,407,-271
0,250996,-1652,687,-505,-1487,-309,-44,257,407,-271
0,251001,-1651,685,-507,-1492,-311,-45,257,407,-271
0,251006,-1651,685,-507,-1492,-311,-45,257,407,-271
0,251012,-1651,685,-507,-1492,-311,-45,257,407,-271
0,251017,-1651,685,-507,-1492,-311,-45,257,407,-271
0,251022,-1651,686,-506,-1500,-314,-44,257,407,-271
0,251028,-1651,686,-506,-1500,-314,-44,257,407,-271
0,251033,-1651,686,-506,-1500,-314,-44,257,407,-271
0,251038,-1649,686,-512,-1493,-310,-47,257,407,-271
0,251044,-1649,686,-512,-1493,-310,-47,257,407,-271
0,251049,-1649,686,-512,-1493,-310,-47,257,407,-271
0,251056,-1649,686,-512,-1493,-310,-47,257,407,-271
0,251061,-1648,686,-504,-1485,-310,-44,257,407,-271
0,251066,-1648,686,-504,-1485,-310,-44,257,407,-271
0,251071,-1648,686,-504,-1485,-310,-44,257,407,-271
0,251077,-1648,686,-504,-1485,-310,-44,257,407,-271
0,251082,-1648,687,-517,-1486,-307,-46,257,407,-271
0,251088,-1648,687,-517,-1486,-307,-46,257,407,-271
0,251094,-1648,687,-517,-1486,-307,-46,257,407,-271
0,251100,-1647,687,-502,-1485,-304,-44,258,402,-276
0,251104,-1647,687,-502,-1485,-304,-44,258,402,-276
0,251110,-1647,687,-502,-1485,-304,-44,258,402,-276
0,251115,-1647,687,-502,-1485,-304,-44,258,402,-276
0,251121,-1649,687,-504,-1490,-306,-44,258,402,-276
0,251126,-1649,687,-504,-1490,-306,-44,258,402,-276
0,251132,-1649,687,-504,-1490,-306,-44,258,402,-276
0,251138,-1649,687,-504,-1490,-306,-44,258,402,-276
0,251143,-1654,685,-510,-1487,-305,-47,258,402,-276
0,251149,-1654,685,-510,-1487,-305,-47,258,402,-276
0,251155,-1654,685,-510,-1487,-305,-47,258,402,-276
0,251160,-1654,687,-506,-1488,-305,-48,258,402,-276
0,251165,-1654,687,-506,-1488,-305,-48,258,402,-276
0,251170,-1654,687,-506,-1488,-305,-48,258,402,-276
0,251175,-1654,687,-506,-1488,-305,-48,258,402,-276
0,251182,-1651,685,-506,-1483,-303,-49,258,402,-276
0,251187,-1651,685,-506,-1483,-303,-49,258,402,-276
0,251192,-1651,685,-506,-1483,-303,-49,258,402,-276
0,251197,-1651,685,-506,-1483,-303,-49,258,402,-276
0,251203,-1650,687,-512,-1499,-300,-43,258,402,-276
0,251209,-1650,687,-512,-1499,-300,-43,258,402,-276
0,251214,-1650,687,-512,-1499,-300,-43,258,402,-276
0,251219,-1650,684,-507,-1492,-311,-44,261,405,-281
0,251226,-1650,684,-507,-1492,-311,-44,261,405,-281
0,251231,-1650,684,-507,-1492,-311,-44,261,405,-281
0,251236,-1650,684,-507,-1492,-311,-44,261,405,-281
0,251242,-1646,685,-506,-1494,-309,-47,261,405,-281
0,251247,-1646,685,-506,-1494,-309,-47,261,405,-281
0,251253,-1646,685,-506,-1494,-309,-47,261,405,-281
0,251258,-1650,686,-507,-1494,-313,-45,261,405,-281
0,251264,-1650,686,-507,-1494,-313,-45,261,405,-281
0,251270,-1650,686,-507,-1494,-313,-45,261,405,-281
0,251275,-1650,686,-507,-1494,-313,-45,261,405,-281
0,251281,-1650,684,-509,-1489,-311,-46,261,405,-281
0,251287,-1650,684,-509,-1489,-311,-46,261,405,-281
0,251292,-1650,684,-509,-1489,-311,-46,261,405,-281
0,251298,-1650,684,-509,-1489,-311,-46,261,405,-281
0,251303,-1648,687,-509,-1499,-313,-44,261,405,-281
0,251310,-1648,687,-509,-1499,-313,-44,261,405,-281
0,251315,-1648,687,-509,-1499,-313,-44,261,405,-281
0,251321,-1651,686,-507,-1492,-304,-42,261,405,-281
0,251327,-1651,686,-507,-1492,-304,-42,261,405,-281
0,251333,-1651,686,-507,-1492,-304,-42,261,405,-281
0,251338,-1649,685,-507,-1490,-308,-42,261,405,-281
0,251344,-1649,685,-507,-1490,-308,-42,261,405,-285
0,251350,-1649,685,-507,-1490,-308,-42,261,405,-285
0,251355,-1649,685,-507,-1490,-308,-42,261,405,-285
0,251361,-1650,686,-512,-1494,-306,-42,261,405,-285
0,251366,-1650,686,-512,-1494,-306,-42,261,405,-285
0,251371,-1650,686,-512,-1494,-306,-42,261,405,-285
0,251376,-1650,686,-512,-1494,-306,-42,261,405,-285
0,251381,-1652,684,-504,-1498,-304,-40,261,405,-285
0,251386,-1652,684,-504,-1498,-304,-40,261,405,-285
0,251393,-1652,684,-504,-1498,-304,-40,261,405,-285
0,251398,-1652,684,-504,-1498,-304,-40,261,405,-285
0,251403,-1650,686,-508,-1485,-303,-43,261,405,-285
0,251409,-1650,686,-508,-1485,-303,-43,261,405,-285
0,251414,-1650,686,-508,-1485,-303,-43,261,405,-285
0,251419,-1651,687,-509,-1483,-310,-48,261,405,-285
0,251424,-1651,687,-509,-1483,-310,-48,261,405,-285
0,251430,-1651,687,-509,-1483,-310,-48,261,405,-285
0,251436,-1651,687,-509,-1483,-310,-48,261,405,-285
0,251441,-1650,685,-508,-1487,-307,-52,261,405,-285
0,251446,-1650,685,-508,-1487,-307,-52,261,405,-285
0,251451,-1650,685,-508,-1487,-307,-52,261,405,-285
0,251456,-1650,685,-508,-1487,-307,-52,261,405,-285
0,251461,-1651,686,-507,-1484,-301,-42,268,406,-284
0,251466,-1651,686,-507,-1484,-301,-42,268,406,-284
0,251472,-1651,686,-507,-1484,-301,-42,268,406,-284
0,251478,-1651,686,-507,-1484,-301,-42,268,406,-284
0,251483,-1649,687,-505,-1486,-301,-44,268,406,-284
0,251488,-1649,687,-505,-1486,-301,-44,268,406,-284
0,251494,-1649,687,-505,-1486,-301,-44,268,406,-284
0,251500,-1654,688,-505,-1479,-308,-43,268,406,-284
0,251505,-1654,688,-505,-1479,-308,-43,268,406,-284
0,251510,-1654,688,-505,-1479,-308,-43,268,406,-284
0,251516,-1654,688,-505,-1479,-308,-43,268,406,-284
0,251522,-1650,686,-508,-1486,-305,-46,268,406,-284
0,251528,-1650,686,-508,-1486,-305,-46,268,406,-284
0,251534,-1650,686,-508,-1486,-305,-46,268,406,-284
0,251540,-1652,687,-508,-1485,-301,-49,268,406,-284
0,251545,-1652,687,-508,-1485,-301,-49,268,406,-284
0,251551,-1652,687,-508,-1485,-301,-49,268,406,-284
0,251556,-1652,687,-508,-1485,-301,-49,268,406,-284
0,251561,-1650,690,-505,-1494,-308,-39,268,406,-284
0,251567,-1650,690,-505,-1494,-308,-39,268,406,-284
0,251572,-1650,690,-505,-1494,-308,-39,268,406,-284
0,251578,-1650,690,-505,-1494,-308,-39,268,406,-284
0,251583,-1649,688,-509,-1492,-311,-41,268,406,-284
0,251588,-1649,688,-509,-1492,-311,-41,268,406,-284
0,251593,-1649,688,-509,-1492,-311,-41,268,406,-284
0,251598,-1650,684,-511,-1494,-302,-51,249,407,-279
0,251604,-1650,684,-511,-1494,-302,-51,249,407,-279
0,251610,-1650,684,-511,-1494,-302,-51,249,407,-279
0,251615,-1650,684,-511,-1494,-302,-51,249,407,-279
0,251621,-1652,687,-511,-1494,-306,-46,249,407,-279
0,251626,-1652,687,-511,-1494,-306,-46,249,407,-279
0,251632,-1652,687,-511,-1494,-306,-46,249,407,-279
0,251637,-1652,687,-511,-1494,-306,-46,249,407,-279
0,251643,-1652,690,-510,-1489,-310,-38,249,407,-279
0,251649,-1652,690,-510,-1489,-310,-38,249,407,-279
0,251654,-1652,690,-510,-1489,-310,-38,249,407,-279
0,251659,-1651,689,-507,-1491,-311,-46,249,407,-279
0,251665,-1651,689,-507,-1491,-311,-46,249,407,-279
0,251670,-1651,689,-507,-1491,-311,-46,249,407,-279
0,251676,-1651,689,-507,-1491,-311,-46,249,407,-279
0,251682,-1653,687,-510,-1491,-313,-49,249,407,-279
0,251687,-1653,687,-510,-1491,-313,-49,249,407,-279
0,251694,-1653,687,-510,-1491,-313,-49,249,407,-279
0,251699,-1653,687,-510,-1491,-313,-49,249,407,-279
0,251704,-1652,686,-508,-1490,-304,-50,249,407,-279
0,251710,-1652,686,-508,-1490,-304,-50,249,407,-279
0,251715,-1652,686,-508,-1490,-304,-50,249,407,-279
0,251720,-1652,684,-504,-1488,-301,-51,263,401,-281
0,251726,-1652,684,-504,-1488,-301,-51,263,401,-281
0,251731,-1652,684,-504,-1488,-301,-51,263,401,-281
0,251738,-1652,684,-504,-1488,-301,-51,263,401,-281
0,251743,-1653,690,-513,-1493,-304,-43,263,401,-281
0,251748,-1653,690,-513,-1493,-304,-43,263,401,-281
0,251754,-1653,690,-513,-1493,-304,-43,263,401,-281
0,251759,-1648,684,-514,-1492,-305,-49,263,401,-281
0,251764,-1648,684,-514,-1492,-305,-49,263,401,-281
0,251769,-1648,684,-514,-1492,-305,-49,263,401,-281
0,251776,-1648,684,-514,-1492,-305,-49,263,401,-281
0,251782,-1647,686,-506,-1494,-307,-52,263,401,-281
0,251787,-1647,686,-506,-1494,-307,-52,263,401,-281
0,251793,-1647,686,-506,-1494,-307,-52,263,401,-281
0,251798,-1647,686,-506,-1494,-307,-52,263,401,-281
0,251804,-1650,685,-507,-1495,-310,-40,263,401,-281
0,251810,-1650,685,-507,-1495,-310,-40,263,401,-281
0,251815,-1650,685,-507,-1495,-310,-40,263,401,-281
0,251822,-1651,687,-510,-1489,-311,-45,263,401,-281
0,251827,-1651,687,-510,-1489,-311,-45,263,401,-281
0,251832,-1651,687,-510,-1489,-311,-45,263,401,-281
0,251838,-1651,687,-510,-1489,-311,-45,263,401,-281
0,251844,-1651,686,-508,-1483,-305,-40,260,394,-278
0,251849,-1651,686,-508,-1483,-305,-40,260,394,-278
0,251855,-1651,686,-508,-1483,-305,-40,260,394,-278
0,251860,-1649,685,-508,-1491,-310,-41,260,394,-278
0,251866,-1649,685,-508,-1491,-310,-41,260,394,-278
0,251871,-1649,685,-508,-1491,-310,-41,260,394,-278
0,251877,-1649,685,-508,-1491,-310,-41,260,394,-278
0,251882,-1652,685,-512,-1491,-312,-42,260,394,-278
0,251888,-1652,685,-512,-1491,-312,-42,260,394,-278
0,251893,-1652,685,-512,-1491,-312,-42,260,394,-278
0,251898,-1650,684,-507,-1488,-307,-49,260,394,-278
0,251905,-1650,684,-507,-1488,-307,-49,260,394,-278
0,251910,-1650,684,-507,-1488,-307,-49,260,394,-278
0,251916,-1650,684,-507,-1488,-307,-49,260,394,-278
0,251921,-1650,686,-509,-1484,-303,-40,260,394,-278
0,251926,-1650,686,-509,-1484,-303,-40,260,394,-278
0,251932,-1650,686,-509,-1484,-303,-40,260,394,-278
0,251938,-1650,686,-509,-1484,-303,-40,260,394,-278
0,251943,-1652,687,-504,-1488,-310,-39,260,394,-278
0,251949,-1652,687,-504,-1488,-310,-39,260,394,-278
0,251955,-1652,687,-504,-1488,-310,-39,260,394,-278
0,251960,-1653,690,-508,-1488,-311,-35,251,397,-273
0,251965,-1653,690,-508,-1488,-311,-35,251,397,-273
0,251971,-1653,690,-508,-1488,-311,-35,251,397,-273
0,251977,-1653,690,-508,-1488,-311,-35,251,397,-273
0,251982,-1651,686,-510,-1487,-305,-43,251,397,-273
0,251987,-1651,686,-510,-1487,-305,-43,251,397,-273
0,251993,-1651,686,-510,-1487,-305,-43,251,397,-273
0,251999,-1653,689,-512,-1489,-305,-41,251,397,-273
0,252004,-1653,689,-512,-1489,-305,-41,251,397,-273
0,252009,-1653,689,-512,-1489,-305,-41,251,397,-273
0,252015,-1653,689,-512,-1489,-305,-41,251,397,-273
0,252020,-1651,685,-508,-1491,-305,-47,251,397,-273
0,252025,-1651,685,-508,-1491,-305,-47,251,397,-273
0,252032,-1651,685,-508,-1491,-305,-47,251,397,-273
0,252037,-1651,685,-508,-1491,-305,-47,251,397,-273
0,252043,-1647,686,-510,-1493,-305,-48,251,397,-273
0,252049,-1647,686,-510,-1493,-305,-48,251,397,-273
0,252054,-1647,686,-510,-1493,-305,-48,251,397,-273
0,252060,-1652,686,-512,-1496,-310,-45,251,397,-273
0,252066,-1652,686,-512,-1496,-310,-45,251,397,-273
0,252071,-1652,686,-512,-1496,-310,-45,251,397,-273
0,252077,-1652,686,-512,-1496,-310,-45,251,397,-273
0,252082,-1654,683,-510,-1489,-310,-40,258,402,-272
0,252087,-1654,683,-510,-1489,-310,-40,258,402,-272
0,252092,-1654,683,-510,-1489,-310,-40,258,402,-272
0,252098,-1654,683,-510,-1489,-310,-40,258,402,-272
0,252104,-1652,687,-507,-1487,-309,-47,258,402,-272
0,252109,-1652,687,-507,-1487,-309,-47,258,402,-272
0,252114,-1652,687,-507,-1487,-309,-47,258,402,-272
0,252120,-1652,686,-506,-1483,-314,-46,258,402,-272
0,252126,-1652,686,-506,-1483,-314,-46,258,402,-272
0,252131,-1652,686,-506,-1483,-314,-46,258,402,-272
0,252137,-1652,686,-506,-1483,-314,-46,258,402,-272
0,252142,-1650,684,-505,-1492,-307,-51,258,402,-272
0,252147,-1650,684,-505,-1492,-307,-51,258,402,-272
0,252153,-1650,684,-505,-1492,-307,-51,258,402,-272
0,252158,-1649,684,-506,-1490,-308,-46,258,402,-272
0,252164,-1649,684,-506,-1490,-308,-46,258,402,-272
0,252170,-1649,684,-506,-1490,-308,-46,258,402,-272
0,252175,-1649,684,-506,-1490,-308,-46,258,402,-272
0,252181,-1649,686,-508,-1487,-312,-42,258,402,-272
0,252186,-1649,686,-508,-1487,-312,-42,258,402,-272
0,252191,-1649,686,-508,-1487,-312,-42,258,402,-272
0,252196,-1649,686,-508,-1487,-312,-42,258,402,-272
0,252203,-1650,683,-508,-1479,-306,-46,258,402,-272
0,252208,-1650,683,-508,-1479,-306,-46,258,402,-272
0,252214,-1650,683,-508,-1479,-306,-46,258,402,-272
0,252219,-1648,685,-509,-1487,-303,-43,258,402,-272
0,252224,-1648,685,-509,-1487,-303,-43,258,400,-282
0,252229,-1648,685,-509,-1487,-303,-43,258,400,-282
0,252234,-1648,685,-509,-1487,-303,-43,258,400,-282
0,252240,-1652,687,-510,-1490,-305,-44,258,400,-282
0,252246,-1652,687,-510,-1490,-305,-44,258,400,-282
0,252252,-1652,687,-510,-1490,-305,-44,258,400,-282
0,252257,-1652,687,-510,-1490,-305,-44,258,400,-282
0,252263,-1650,684,-511,-1495,-309,-45,258,400,-282
0,252268,-1650,684,-511,-1495,-309,-45,258,400,-282
0,252273,-1650,684,-511,-1495,-309,-45,258,400,-282
0,252279,-1650,684,-510,-1498,-320,-45,258,400,-282
0,252284,-1650,684,-510,-1498,-320,-45,258,400,-282
0,252291,-1650,684,-510,-1498,-320,-45,258,400,-282
0,252296,-1650,684,-510,-1498,-320,-45,258,400,-282
0,252301,-1651,685,-513,-1488,-310,-45,258,400,-282
0,252307,-1651,685,-513,-1488,-310,-45,258,400,-282
0,252312,-1651,685,-513,-1488,-310,-45,258,400,-282
0,252317,-1651,685,-513,-1488,-310,-45,258,400,-282
0,252323,-1652,685,-508,-1485,-307,-50,258,400,-282
0,252328,-1652,685,-508,-1485,-307,-50,258,400,-282
0,252334,-1652,685,-508,-1485,-307,-50,258,400,-282
0,252340,-1652,685,-505,-1492,-312,-45,271,399,-283
0,252345,-1652,685,-505,-1492,-312,-45,271,399,-283
0,252351,-1652,685,-505,-1492,-312,-45,271,399,-283
0,252356,-1652,685,-505,-1492,-312,-45,271,399,-283
0,252361,-1649,684,-505,-1497,-314,-47,271,399,-283
0,252367,-1649,684,-505,-1497,-314,-47,271,399,-283
0,252372,-1649,684,-505,-1497,-314,-47,271,399,-283
0,252379,-1649,684,-505,-1497,-314,-47,271,399,-283
0,252384,-1651,686,-508,-1488,-310,-35,271,399,-283
0,252389,-1651,686,-508,-1488,-310,-35,271,399,-283
0,252395,-1651,686,-508,-1488,-310,-35,271,399,-283
0,252400,-1651,685,-507,-1492,-310,-41,271,399,-283
0,252405,-1651,685,-507,-1492,-310,-41,271,399,-283
0,252410,-1651,685,-507,-1492,-310,-41,271,399,-283
0,252417,-1651,685,-507,-1492,-310,-41,271,399,-283
0,252421,-1650,688,-507,-1492,-309,-42,271,399,-283
0,252427,-1650,688,-507,-1492,-309,-42,271,399,-283
0,252432,-1650,688,-507,-1492,-309,-42,271,399,-283
0,252438,-1650,688,-507,-1492,-309,-42,271,399,-283
0,252443,-1650,687,-506,-1492,-307,-44,271,399,-283
0,252448,-1650,687,-506,-1492,-307,-44,271,399,-283
0,252453,-1650,687,-506,-1492,-307,-44,271,399,-283
0,252459,-1650,687,-507,-1498,-310,-45,271,399,-283
0,252465,-1650,687,-507,-1498,-310,-45,260,404,-278
0,252471,-1650,687,-507,-1498,-310,-45,260,404,-278
0,252476,-1650,687,-507,-1498,-310,-45,260,404,-278
0,252482,-1651,685,-504,-1485,-309,-44,260,404,-278
0,252487,-1651,685,-504,-1485,-309,-44,260,404,-278
0,252493,-1651,685,-504,-1485,-309,-44,260,404,-278
0,252498,-1651,685,-504,-1485,-309,-44,260,404,-278
0,252505,-1650,686,-509,-1489,-309,-42,260,404,-278
0,252511,-1650,686,-509,-1489,-309,-42,260,404,-278
0,252516,-1650,686,-509,-1489,-309,-42,260,404,-278
0,252522,-1652,687,-506,-1486,-303,-45,260,404,-278
0,252527,-1652,687,-506,-1486,-303,-45,260,404,-278
0,252532,-1652,687,-506,-1486,-303,-45,260,404,-278
0,252538,-1652,687,-506,-1486,-303,-45,260,404,-278
0,252544,-1651,682,-510,-1489,-306,-43,260,404,-278
0,252549,-1651,682,-510,-1489,-306,-43,260,404,-278
0,252554,-1651,682,-510,-1489,-306,-43,260,404,-278
0,252559,-1651,682,-510,-1489,-306,-43,260,404,-278
0,252564,-1653,686,-509,-1494,-308,-41,260,404,-278
0,252570,-1653,686,-509,-1494,-308,-41,260,404,-278
0,252574,-1653,686,-509,-1494,-308,-41,260,404,-278
0,252580,-1650,685,-503,-1493,-308,-43,263,411,-283
0,252585,-1650,685,-503,-1493,-308,-43,263,411,-283
0,252592,-1650,685,-503,-1493,-308,-43,263,411,-283
0,252597,-1650,685,-503,-1493,-308,-43,263,411,-283
0,252603,-1649,683,-504,-1492,-312,-42,263,411,-283
0,252608,-1649,683,-504,-1492,-312,-42,263,411,-283
0,252614,-1649,683,-504,-1492,-312,-42,263,411,-283
0,252619,-1650,685,-507,-1495,-306,-40,263,411,-283
0,252625,-1650,685,-507,-1495,-306,-40,263,411,-283
0,252631,-1650,685,-507,-1495,-306,-40,263,411,-283
0,252636,-1650,685,-507,-1495,-306,-40,263,411,-283
0,252642,-1650,685,-513,-1488,-306,-44,263,411,-283
0,252647,-1650,685,-513,-1488,-306,-44,263,411,-283
0,252652,-1650,685,-513,-1488,-306,-44,263,411,-283
0,252658,-1650,685,-513,-1488,-306,-44,263,411,-283
0,252664,-1651,685,-509,-1490,-302,-50,263,411,-283
0,252669,-1651,685,-509,-1490,-302,-50,263,411,-283
0,252676,-1651,685,-509,-1490,-302,-50,263,411,-283
0,252684,-1652,687,-507,-1496,-311,-44,263,411,-283
0,252690,-1652,687,-507,-1496,-311,-44,263,411,-283
0,252695,-1652,687,-507,-1496,-311,-44,263,411,-283
0,252701,-1650,686,-508,-1495,-313,-45,263,411,-283
0,252706,-1650,686,-508,-1495,-313,-45,263,411,-283
0,252711,-1650,686,-508,-1495,-313,-45,263,411,-283
0,252717,-1650,686,-508,-1495,-313,-45,263,411,-283
0,252722,-1653,684,-504,-1490,-315,-47,255,403,-289
0,252728,-1653,684,-504,-1490,-315,-47,255,403,-289
0,252733,-1653,684,-504,-1490,-315,-47,255,403,-289
0,252738,-1653,684,-504,-1490,-315,-47,255,403,-289
0,252744,-1651,687,-512,-1490,-304,-42,255,403,-289
0,252750,-1651,687,-512,-1490,-304,-42,255,403,-289
0,252755,-1651,687,-512,-1490,-304,-42,255,403,-289
0,252761,-1651,687,-510,-1487,-310,-40,255,403,-289
0,252767,-1651,687,-510,-1487,-310,-40,255,403,-289
0,252772,-1651,687,-510,-1487,-310,-40,255,403,-289
0,252777,-1651,687,-510,-1487,-310,-40,255,403,-289
0,252783,-1650,688,-510,-1491,-306,-51,255,403,-289
0,252789,-1650,688,-510,-1491,-306,-51,255,403,-289
0,252794,-1650,688,-510,-1491,-306,-51,255,403,-289
0,252800,-1651,688,-514,-1489,-307,-50,255,403,-289
0,252805,-1651,688,-514,-1489,-307,-50,255,403,-289
0,252810,-1651,688,-514,-1489,-307,-50,255,403,-289
0,252816,-1651,688,-514,-1489,-307,-50,255,403,-289
0,252821,-1652,686,-514,-1495,-306,-39,255,403,-289
0,252827,-1652,686,-514,-1495,-306,-39,255,403,-289
0,252832,-1652,686,-514,-1495,-306,-39,255,403,-289
0,252838,-1652,686,-514,-1495,-306,-39,255,403,-289
0,252844,-1649,687,-503,-1487,-309,-40,254,410,-280
0,252849,-1649,687,-503,-1487,-309,-40,254,410,-280
0,252855,-1649,687,-503,-1487,-309,-40,254,410,-280
0,252860,-1648,687,-505,-1490,-308,-47,254,410,-280
0,252866,-1648,687,-505,-1490,-308,-47,254,410,-280
0,252871,-1648,687,-505,-1490,-308,-47,254,410,-280
0,252876,-1648,687,-505,-1490,-308,-47,254,410,-280
0,252881,-1648,688,-509,-1489,-310,-48,254,410,-280
0,252888,-1648,688,-509,-1489,-310,-48,254,410,-280
0,252893,-1648,688,-509,-1489,-310,-48,254,410,-280
0,252899,-1648,688,-509,-1489,-310,-48,254,410,-280
0,252904,-1648,686,-510,-1484,-306,-44,254,410,-280
0,252909,-1648,686,-510,-1484,-306,-44,254,410,-280
0,252915,-1648,686,-510,-1484,-306,-44,254,410,-280
0,252920,-1653,683,-507,-1490,-305,-42,254,410,-280
0,252925,-1653,683,-507,-1490,-305,-42,254,410,-280
0,252932,-1653,683,-507,-1490,-305,-42,254,410,-280
0,252937,-1653,683,-507,-1490,-305,-42,254,410,-280
0,252942,-1648,684,-511,-1493,-310,-38,254,410,-280
0,252948,-1648,684,-511,-1493,-310,-38,254,410,-280
0,252953,-1648,684,-511,-1493,-310,-38,254,410,-280
0,252958,-1648,684,-511,-1493,-310,-38,254,410,-280
0,252964,-1648,684,-511,-1493,-310,-38,270,402,-276
0,252969,-1648,684,-511,-1493,-310,-38,270,402,-276
0,252976,-1648,684,-511,-1493,-310,-38,270,402,-276
0,252981,-1650,686,-511,-1484,-307,-39,270,402,-276
0,252986,-1650,686,-511,-1484,-307,-39,270,402,-276
0,252992,-1650,686,-511,-1484,-307,-39,270,402,-276
0,252997,-1650,686,-511,-1484,-307,-39,270,402,-276
0,253002,-1647,685,-516,-1491,-312,-46,270,402,-276
0,253007,-1647,685,-516,-1491,-312,-46,270,402,-276
0,253012,-1647,685,-516,-1491,-312,-46,270,402,-276
0,253018,-1647,685,-516,-1491,-312,-46,270,402,-276
0,253024,-1650,683,-508,-1498,-308,-41,270,402,-276
0,253029,-1650,683,-508,-1498,-308,-41,270,402,-276
0,253034,-1650,683,-508,-1498,-308,-41,270,402,-276
0,253040,-1647,686,-508,-1491,-308,-42,270,402,-276
0,253046,-1647,686,-508,-1491,-308,-42,270,402,-276
0,253051,-1647,686,-508,-1491,-308,-42,270,402,-276
0,253057,-1647,686,-508,-1491,-308,-42,270,402,-276
0,253062,-1647,685,-504,-1483,-302,-44,270,402,-276
0,253067,-1647,685,-504,-1483,-302,-44,270,402,-276
0,253073,-1647,685,-504,-1483,-302,-44,270,402,-276
0,253078,-1647,685,-504,-1483,-302,-44,270,402,-276
0,253083,-1651,687,-505,-1485,-295,-39,255,409,-271
0,253088,-1651,687,-505,-1485,-295,-39,255,409,-271
0,253093,-1651,687,-505,-1485,-295,-39,255,409,-271
0,253100,-1652,689,-507,-1496,-308,-42,255,409,-271
0,253105,-1652,689,-507,-1496,-308,-42,255,409,-271
0,253111,-1652,689,-507,-1496,-308,-42,255,409,-271
0,253116,-1652,689,-507,-1496,-308,-42,255,409,-271
0,253122,-1650,685,-510,-1492,-315,-44,255,409,-271
0,253127,-1650,685,-510,-1492,-315,-44,255,409,-271
0,253132,-1650,685,-510,-1492,-315,-44,255,409,-271
0,253138,-1650,685,-510,-1492,-315,-44,255,409,-271
0,253144,-1651,686,-509,-1492,-310,-42,255,409,-271
0,253150,-1651,686,-509,-1492,-310,-42,255,409,-271
0,253156,-1651,686,-509,-1492,-310,-42,255,409,-271
0,253161,-1650,688,-511,-1491,-299,-44,255,409,-271
0,253166,-1650,688,-511,-1491,-299,-44,255,409,-271
0,253172,-1650,688,-511,-1491,-299,-44,255,409,-271
0,253177,-1650,688,-511,-1491,-299,-44,255,409,-271
0,253182,-1649,687,-509,-1497,-302,-43,255,409,-271
0,253189,-1649,687,-509,-1497,-302,-43,255,409,-271
0,253194,-1649,687,-509,-1497,-302,-43,255,409,-271
0,253199,-1650,686,-510,-1489,-302,-46,255,409,-271
0,253205,-1650,686,-510,-1489,-302,-46,269,403,-281
0,253210,-1650,686,-510,-1489,-302,-46,269,403,-281
0,253215,-1650,686,-510,-1489,-302,-46,269,403,-281
0,253220,-1651,685,-506,-1486,-304,-44,269,403,-281
0,253227,-1651,685,-506,-1486,-304,-44,269,403,-281
0,253232,-1651,685,-506,-1486,-304,-44,269,403,-281
0,253238,-1651,685,-506,-1486,-304,-44,269,403,-281
0,253243,-1648,682,-505,-1493,-309,-42,269,403,-281
0,253249,-1648,682,-505,-1493,-309,-42,269,403,-281
0,253254,-1648,682,-505,-1493,-309,-42,269,403,-281
0,253259,-1651,682,-511,-1488,-316,-46,269,403,-281
0,253266,-1651,682,-511,-1488,-316,-46,269,403,-281
0,253272,-1651,682,-511,-1488,-316,-46,269,403,-281
0,253277,-1651,682,-511,-1488,-316,-46,269,403,-281
0,253282,-1650,688,-515,-1491,-311,-47,269,403,-281
0,253288,-1650,688,-515,-1491,-311,-47,269,403,-281
0,253293,-1650,688,-515,-1491,-311,-47,269,403,-281
0,253298,-1650,688,-515,-1491,-311,-47,269,403,-281
0,253303,-1653,686,-513,-1484,-313,-43,269,403,-281
0,253309,-1653,686,-513,-1484,-313,-43,269,403,-281
0,253315,-1653,686,-513,-1484,-313,-43,269,403,-281
0,253321,-1651,685,-513,-1483,-306,-43,269,403,-281
0,253326,-1651,685,-513,-1483,-306,-43,269,403,-281
0,253332,-1651,685,-513,-1483,-306,-43,269,403,-281
0,253337,-1651,685,-513,-1483,-306,-43,269,403,-281
0,253343,-1653,686,-505,-1487,-308,-38,263,407,-281
0,253348,-1653,686,-505,-1487,-308,-38,263,407,-281
0,253353,-1653,686,-505,-1487,-308,-38,263,407,-281
0,253360,-1650,685,-505,-1484,-311,-46,263,407,-281
0,253365,-1650,685,-505,-1484,-311,-46,263,407,-281
0,253369,-1650,685,-505,-1484,-311,-46,263,407,-281
0,253375,-1650,685,-505,-1484,-311,-46,263,407,-281
0,253380,-1647,684,-508,-1485,-302,-43,263,407,-281
0,253386,-1647,684,-508,-1485,-302,-43,263,407,-281
0,253391,-1647,684,-508,-1485,-302,-43,263,407,-281
0,253396,-1647,684,-508,-1485,-302,-43,263,407,-281
0,253402,-1652,685,-506,-1487,-305,-41,263,407,-281
0,253408,-1652,685,-506,-1487,-305,-41,263,407,-281
0,253413,-1652,685,-506,-1487,-305,-41,263,407,-281
0,253419,-1652,685,-506,-1487,-305,-41,263,407,-281
0,253424,-1649,684,-509,-1490,-316,-40,263,407,-281
0,253429,-1649,684,-509,-1490,-316,-40,263,407,-281
0,253435,-1649,684,-509,-1490,-316,-40,263,407,-281
0,253441,-1650,687,-510,-1492,-305,-42,263,407,-281
0,253446,-1650,687,-510,-1492,-305,-42,263,407,-281
0,253452,-1650,687,-510,-1492,-305,-42,263,407,-281
0,253457,-1650,687,-510,-1492,-305,-42,263,407,-281
0,253463,-1650,687,-510,-1490,-311,-37,261,407,-283
0,253468,-1650,687,-510,-1490,-311,-37,261,407,-283
0,253474,-1650,687,-510,-1490,-311,-37,261,407,-283
0,253479,-1650,687,-510,-1490,-311,-37,261,407,-283
0,253485,-1647,685,-508,-1487,-307,-39,261,407,-283
0,253490,-1647,685,-508,-1487,-307,-39,261,407,-283
0,253495,-1647,685,-508,-1487,-307,-39,261,407,-283
0,253500,-1649,685,-508,-1485,-307,-43,261,407,-283
0,253506,-1649,685,-508,-1485,-307,-43,261,407,-283
0,253511,-1649,685,-508,-1485,-307,-43,261,407,-283
0,253516,-1649,685,-508,-1485,-307,-43,261,407,-283
0,253522,-1651,685,-509,-1488,-312,-39,261,407,-283
0,253528,-1651,685,-509,-1488,-312,-39,261,407,-283
0,253533,-1651,685,-509,-1488,-312,-39,261,407,-283
0,253538,-1651,685,-509,-1488,-312,-39,261,407,-283
0,253544,-1651,686,-510,-1481,-307,-40,261,407,-283
0,253549,-1651,686,-510,-1481,-307,-40,261,407,-283
0,253554,-1651,686,-510,-1481,-307,-40,261,407,-283
0,253559,-1651,686,-509,-1493,-307,-45,261,407,-283
0,253565,-1651,686,-509,-1493,-307,-45,261,407,-283
0,253571,-1651,686,-509,-1493,-307,-45,261,407,-283
0,253577,-1651,686,-509,-1493,-307,-45,261,407,-283
0,253582,-1648,689,-505,-1485,-307,-43,254,398,-278
0,253588,-1648,689,-505,-1485,-307,-43,254,398,-278
0,253593,-1648,689,-505,-1485,-307,-43,254,398,-278
0,253598,-1648,689,-505,-1485,-307,-43,254,398,-278
0,253603,-1650,685,-505,-1488,-302,-46,254,398,-278
0,253609,-1650,685,-505,-1488,-302,-46,254,398,-278
0,253615,-1650,685,-505,-1488,-302,-46,254,398,-278
0,253620,-1653,686,-506,-1492,-303,-41,254,398,-278
0,253626,-1653,686,-506,-1492,-303,-41,254,398,-278
0,253631,-1653,686,-506,-1492,-303,-41,254,398,-278
0,253637,-1653,686,-506,-1492,-303,-41,254,398,-278
0,253642,-1650,688,-509,-1497,-301,-40,254,398,-278
0,253648,-1650,688,-509,-1497,-301,-40,254,398,-278
0,253655,-1650,688,-509,-1497,-301,-40,254,398,-278
0,253660,-1649,685,-508,-1493,-305,-41,254,398,-278
0,253665,-1649,685,-508,-1493,-305,-41,254,398,-278
0,253671,-1649,685,-508,-1493,-305,-41,254,398,-278
0,253676,-1649,685,-508,-1493,-305,-41,254,398,-278
0,253682,-1650,685,-510,-1491,-308,-42,254,398,-278
0,253687,-1650,685,-510,-1491,-308,-42,254,398,-278
0,253692,-1650,685,-510,-1491,-308,-42,254,398,-278
0,253699,-1650,685,-510,-1491,-308,-42,254,398,-278
0,253704,-1648,688,-509,-1498,-309,-41,258,406,-280
0,253710,-1648,688,-509,-1498,-309,-41,258,406,-280
0,253715,-1648,688,-509,-1498,-309,-41,258,406,-280
0,253721,-1653,688,-511,-1499,-308,-35,258,406,-280
0,253726,-1653,688,-511,-1499,-308,-35,258,406,-280
0,253732,-1653,688,-511,-1499,-308,-35,258,406,-280
0,253737,-1653,688,-511,-1499,-308,-35,258,406,-280
0,253743,-1647,684,-510,-1492,-309,-47,258,406,-280
0,253749,-1647,684,-510,-1492,-309,-47,258,406,-280
0,253754,-1647,684,-510,-1492,-309,-47,258,406,-280
0,253760,-1649,686,-513,-1484,-310,-39,258,406,-280
0,253765,-1649,686,-513,-1484,-310,-39,258,406,-280
0,253770,-1649,686,-513,-1484,-310,-39,258,406,-280
0,253775,-1649,686,-513,-1484,-310,-39,258,406,-280
0,253780,-1649,686,-512,-1487,-312,-47,258,406,-280
0,253787,-1649,686,-512,-1487,-312,-47,258,406,-280
0,253792,-1649,686,-512,-1487,-312,-47,258,406,-280
0,253798,-1649,686,-512,-1487,-312,-47,258,406,-280
0,253803,-1650,685,-509,-1493,-306,-49,258,406,-280
0,253809,-1650,685,-509,-1493,-306,-49,258,406,-280
0,253814,-1650,685,-509,-1493,-306,-49,258,406,-280
0,253819,-1649,689,-514,-1492,-306,-47,263,403,-287
0,253826,-1649,689,-514,-1492,-306,-47,263,403,-287
0,253831,-1649,689,-514,-1492,-306,-47,263,403,-287
0,253837,-1649,689,-514,-1492,-306,-47,263,403,-287
0,253842,-1650,685,-507,-1489,-302,-50,263,403,-287
0,253848,-1650,685,-507,-1489,-302,-50,263,403,-287
0,253853,-1650,685,-507,-1489,-302,-50,263,403,-287
0,253858,-1650,685,-507,-1489,-302,-50,263,403,-287
0,253863,-1650,685,-506,-1493,-307,-50,263,403,-287
0,253870,-1650,685,-506,-1493,-307,-50,263,403,-287
0,253875,-1650,685,-506,-1493,-307,-50,263,403,-287
0,253881,-1648,686,-507,-1492,-301,-42,263,403,-287
0,253886,-1648,686,-507,-1492,-301,-42,263,403,-287
0,253891,-1648,686,-507,-1492,-301,-42,263,403,-287
0,253897,-1648,686,-507,-1492,-301,-42,263,403,-287
0,253902,-1649,685,-513,-1490,-307,-38,263,403,-287
0,253908,-1649,685,-513,-1490,-307,-38,263,403,-287
0,253914,-1649,685,-513,-1490,-307,-38,263,403,-287
0,253920,-1649,685,-513,-1490,-307,-38,263,403,-287
0,253924,-1651,685,-511,-1490,-306,-47,263,403,-287
0,253930,-1651,685,-511,-1490,-306,-47,263,403,-287
0,253936,-1651,685,-511,-1490,-306,-47,263,403,-287
0,253941,-1652,684,-510,-1487,-314,-41,263,403,-287
0,253946,-1652,684,-510,-1487,-314,-41,263,403,-287
0,253952,-1652,684,-510,-1487,-314,-41,263,403,-287
0,253957,-1652,684,-510,-1487,-314,-41,263,403,-287
0,253962,-1651,685,-511,-1485,-304,-43,273,413,-281
0,253968,-1651,685,-511,-1485,-304,-43,273,413,-281
0,253973,-1651,685,-511,-1485,-304,-43,273,413,-281
0,253978,-1651,685,-511,-1485,-304,-43,273,413,-281
0,253984,-1650,685,-508,-1491,-312,-44,273,413,-281
0,253989,-1650,685,-508,-1491,-312,-44,273,413,-281
0,253995,-1650,685,-508,-1491,-312,-44,273,413,-281
0,254001,-1648,686,-512,-1491,-311,-46,273,413,-281
0,254006,-1648,686,-512,-1491,-311,-46,273,413,-281
0,254012,-1648,686,-512,-1491,-311,-46,273,413,-281
0,254017,-1648,686,-512,-1491,-311,-46,273,413,-281
0,254022,-1650,686,-512,-1487,-303,-45,273,413,-281
0,254028,-1650,686,-512,-1487,-303,-45,273,413,-281
0,254033,-1650,686,-512,-1487,-303,-45,273,413,-281
0,254039,-1650,686,-512,-1487,-303,-45,273,413,-281
0,254045,-1650,688,-511,-1489,-301,-49,273,413,-281
0,254050,-1650,688,-511,-1489,-301,-49,273,413,-281
0,254056,-1650,688,-511,-1489,-301,-49,273,413,-281
0,254062,-1650,688,-507,-1490,-312,-41,273,413,-281
0,254070,-1650,688,-507,-1490,-312,-41,273,413,-281
0,254075,-1650,688,-507,-1490,-312,-41,273,413,-281
0,254082,-1649,689,-509,-1493,-313,-46,251,407,-275
0,254089,-1649,689,-509,-1493,-313,-46,251,407,-275
0,254094,-1649,689,-509,-1493,-313,-46,251,407,-275
0,254099,-1649,689,-509,-1493,-313,-46,251,407,-275
0,254104,-1650,687,-510,-1490,-309,-47,251,407,-275
0,254109,-1650,687,-510,-1490,-309,-47,251,407,-275
0,254114,-1650,687,-510,-1490,-309,-47,251,407,-275
0,254119,-1650,687,-510,-1490,-309,-47,251,407,-275
0,254124,-1651,686,-512,-1488,-304,-49,251,407,-275
0,254129,-1651,686,-512,-1488,-304,-49,251,407,-275
0,254134,-1651,686,-512,-1488,-304,-49,251,407,-275
0,254138,-1651,686,-512,-1488,-304,-49,251,407,-275
0,254143,-1651,684,-508,-1484,-307,-48,251,407,-275
0,254148,-1651,684,-508,-1484,-307,-48,251,407,-275
0,254153,-1651,684,-508,-1484,-307,-48,251,407,-275
0,254158,-1651,684,-508,-1484,-307,-48,251,407,-275
0,254163,-1652,686,-504,-1486,-306,-45,251,407,-275
0,254169,-1652,686,-504,-1486,-306,-45,251,407,-275
0,254174,-1652,686,-504,-1486,-306,-45,251,407,-275
0,254179,-1652,686,-504,-1486,-306,-45,251,407,-275
0,254185,-1649,684,-509,-1484,-307,-51,251,407,-275
0,254190,-1649,684,-509,-1484,-307,-51,251,407,-275
0,254195,-1649,684,-509,-1484,-307,-51,251,407,-275
0,254200,-1652,688,-508,-1493,-302,-40,259,409,-273
0,254206,-1652,688,-508,-1493,-302,-40,259,409,-273
0,254212,-1652,688,-508,-1493,-302,-40,259,409,-273
0,254218,-1652,688,-508,-1493,-302,-40,259,409,-273
0,254223,-1649,687,-503,-1495,-304,-42,259,409,-273
0,254227,-1649,687,-503,-1495,-304,-42,259,409,-273
0,254233,-1649,687,-503,-1495,-304,-42,259,409,-273
0,254238,-1649,687,-503,-1495,-304,-42,259,409,-273
0,254244,-1650,686,-510,-1498,-302,-49,259,409,-273
0,254249,-1650,686,-510,-1498,-302,-49,259,409,-273
0,254256,-1650,686,-510,-1498,-302,-49,259,409,-273
0,254261,-1651,683,-515,-1489,-300,-44,259,409,-273
0,254267,-1651,683,-515,-1489,-300,-44,259,409,-273
0,254271,-1651,683,-515,-1489,-300,-44,259,409,-273
0,254277,-1651,683,-515,-1489,-300,-44,259,409,-273
0,254282,-1651,684,-509,-1492,-305,-43,259,409,-273
0,254288,-1651,684,-509,-1492,-305,-43,259,409,-273
0,254294,-1651,684,-509,-1492,-305,-43,259,409,-273
0,254300,-1651,684,-509,-1492,-305,-43,259,409,-273
0,254304,-1652,683,-506,-1486,-307,-48,259,409,-273
0,254310,-1652,683,-506,-1486,-307,-48,259,409,-273
0,254315,-1652,683,-506,-1486,-307,-48,259,409,-273
0,254321,-1651,688,-506,-1484,-308,-40,255,409,-283
0,254326,-1651,688,-506,-1484,-308,-40,255,409,-283
0,254332,-1651,688,-506,-1484,-308,-40,255,409,-283
0,254340,-1651,688,-506,-1484,-308,-40,255,409,-283
0,254346,-1651,688,-508,-1486,-303,-44,255,409,-283
0,254351,-1651,688,-508,-1486,-303,-44,255,409,-283
0,254356,-1651,688,-508,-1486,-303,-44,255,409,-283
0,254362,-1649,686,-507,-1484,-308,-48,255,409,-283
0,254367,-1649,686,-507,-1484,-308,-48,255,409,-283
0,254373,-1649,686,-507,-1484,-308,-48,255,409,-283
0,254379,-1649,686,-507,-1484,-308,-48,255,409,-283
0,254386,-1651,685,-507,-1494,-310,-47,255,409,-283
0,254392,-1651,685,-507,-1494,-310,-47,255,409,-283
0,254397,-1651,685,-507,-1494,-310,-47,255,409,-283
0,254403,-1653,685,-506,-1499,-316,-45,255,409,-283
0,254408,-1653,685,-506,-1499,-316,-45,255,409,-283
0,254413,-1653,685,-506,-1499,-316,-45,255,409,-283
0,254418,-1653,685,-506,-1499,-316,-45,255,409,-283
0,254425,-1654,687,-511,-1496,-308,-39,255,409,-283
0,254430,-1654,687,-511,-1496,-308,-39,255,409,-283
0,254436,-1654,687,-511,-1496,-308,-39,255,409,-283
0,254441,-1654,687,-508,-1487,-310,-40,258,406,-280
0,254446,-1654,687,-508,-1487,-310,-40,258,406,-280
0,254452,-1654,687,-508,-1487,-310,-40,258,406,-280
0,254457,-1654,687,-508,-1487,-310,-40,258,406,-280
0,254462,-1649,690,-510,-1487,-310,-34,258,406,-280
0,254468,-1649,690,-510,-1487,-310,-34,258,406,-280
0,254473,-1649,690,-510,-1487,-310,-34,258,406,-280
0,254479,-1649,690,-510,-1487,-310,-34,258,406,-280
0,254484,-1651,686,-509,-1491,-305,-41,258,406,-280
0,254489,-1651,686,-509,-1491,-305,-41,258,406,-280
0,254495,-1651,686,-509,-1491,-305,-41,258,406,-280
0,254500,-1650,685,-506,-1488,-300,-42,258,406,-280
0,254507,-1650,685,-506,-1488,-300,-42,258,406,-280
0,254511,-1650,685,-506,-1488,-300,-42,258,406,-280
0,254517,-1650,685,-506,-1488,-300,-42,258,406,-280
0,254522,-1651,683,-514,-1487,-303,-42,258,406,-280
0,254528,-1651,683,-514,-1487,-303,-42,258,406,-280
0,254533,-1651,683,-514,-1487,-303,-42,258,406,-280
0,254538,-1651,683,-514,-1487,-303,-42,258,406,-280
0,254543,-1652,685,-516,-1492,-311,-45,258,406,-280
0,254548,-1652,685,-516,-1492,-311,-45,258,406,-280
0,254555,-1652,685,-516,-1492,-311,-45,258,406,-280
0,254560,-1649,683,-509,-1486,-305,-46,258,406,-280
0,254566,-1649,683,-509,-1486,-305,-46,258,406,-280
0,254572,-1649,683,-509,-1486,-305,-46,258,406,-280
0,254577,-1649,683,-509,-1486,-305,-46,258,406,-280
0,254582,-1651,684,-506,-1491,-307,-39,259,401,-273
0,254587,-1651,684,-506,-1491,-307,-39,259,401,-273
0,254594,-1651,684,-506,-1491,-307,-39,259,401,-273
0,254599,-1651,684,-506,-1491,-307,-39,259,401,-273
0,254605,-1650,685,-510,-1493,-312,-43,259,401,-273
0,254610,-1650,685,-510,-1493,-312,-43,259,401,-273
0,254615,-1650,685,-510,-1493,-312,-43,259,401,-273
0,254621,-1653,688,-511,-1490,-309,-40,259,401,-273
0,254626,-1653,688,-511,-1490,-309,-40,259,401,-273
0,254632,-1653,688,-511,-1490,-309,-40,259,401,-273
0,254639,-1653,688,-511,-1490,-309,-40,259,401,-273
0,254645,-1652,685,-509,-1492,-305,-47,259,401,-273
0,254650,-1652,685,-509,-1492,-305,-47,259,401,-273
0,254655,-1652,685,-509,-1492,-305,-47,259,401,-273
0,254661,-1648,686,-511,-1486,-303,-44,259,401,-273
0,254666,-1648,686,-511,-1486,-303,-44,259,401,-273
0,254672,-1648,686,-511,-1486,-303,-44,259,401,-273
0,254678,-1648,686,-511,-1486,-303,-44,259,401,-273
0,254684,-1653,687,-510,-1492,-303,-47,259,401,-273
0,254690,-1653,687,-510,-1492,-303,-47,259,401,-273
0,254695,-1653,687,-510,-1492,-303,-47,259,401,-273
0,254701,-1652,688,-510,-1493,-305,-37,260,398,-280
0,254707,-1652,688,-510,-1493,-305,-37,260,398,-280
0,254712,-1652,688,-510,-1493,-305,-37,260,398,-280
0,254718,-1652,688,-510,-1493,-305,-37,260,398,-280
0,254724,-1652,686,-507,-1487,-306,-43,260,398,-280
0,254729,-1652,686,-507,-1487,-306,-43,260,398,-280
0,254735,-1652,686,-507,-1487,-306,-43,260,398,-280
0,254741,-1647,687,-506,-1494,-307,-48,260,398,-280
0,254747,-1647,687,-506,-1494,-307,-48,260,398,-280
0,254753,-1647,687,-506,-1494,-307,-48,260,398,-280
0,254758,-1647,687,-506,-1494,-307,-48,260,398,-280
0,254764,-1653,688,-511,-1495,-310,-39,260,398,-280
0,254769,-1653,688,-511,-1495,-310,-39,260,398,-280
0,254775,-1653,688,-511,-1495,-310,-39,260,398,-280
0,254780,-1653,688,-511,-1495,-310,-39,260,398,-280
0,254785,-1648,683,-511,-1492,-309,-45,260,398,-280
0,254790,-1648,683,-511,-1492,-309,-45,260,398,-280
0,254796,-1648,683,-511,-1492,-309,-45,260,398,-280
0,254801,-1652,684,-514,-1491,-310,-45,260,398,-280
0,254807,-1652,684,-514,-1491,-310,-45,260,398,-280
0,254813,-1652,684,-514,-1491,-310,-45,260,398,-280
0,254818,-1652,684,-514,-1491,-310,-45,260,398,-280
0,254823,-1652,688,-506,-1486,-307,-42,260,404,-280
0,254829,-1652,688,-506,-1486,-307,-42,260,404,-280
0,254834,-1652,688,-506,-1486,-307,-42,260,404,-280
0,254840,-1651,687,-509,-1489,-299,-39,260,404,-280
0,254846,-1651,687,-509,-1489,-299,-39,260,404,-280
0,254852,-1651,687,-509,-1489,-299,-39,260,404,-280
0,254857,-1651,687,-509,-1489,-299,-39,260,404,-280
0,254863,-1648,686,-508,-1493,-305,-33,260,404,-280
0,254868,-1648,686,-508,-1493,-305,-33,260,404,-280
0,254873,-1648,686,-508,-1493,-305,-33,260,404,-280
0,254878,-1648,686,-508,-1493,-305,-33,260,404,-280
0,254884,-1649,684,-507,-1493,-309,-33,260,404,-280
0,254889,-1649,684,-507,-1493,-309,-33,260,404,-280
0,254895,-1649,684,-507,-1493,-309,-33,260,404,-280
0,254901,-1652,686,-506,-1482,-307,-49,260,404,-280
0,254906,-1652,686,-506,-1482,-307,-49,260,404,-280
0,254911,-1652,686,-506,-1482,-307,-49,260,404,-280
0,254917,-1652,686,-506,-1482,-307,-49,260,404,-280
0,254922,-1650,689,-507,-1485,-305,-47,260,404,-280
0,254927,-1650,689,-507,-1485,-305,-47,260,404,-280
0,254932,-1650,689,-507,-1485,-305,-47,260,404,-280
0,254938,-1650,689,-507,-1485,-305,-47,260,404,-280
0,254943,-1651,687,-507,-1486,-312,-36,269,405,-281
0,254948,-1651,687,-507,-1486,-312,-36,269,405,-281
0,254953,-1651,687,-507,-1486,-312,-36,269,405,-281
0,254958,-1651,687,-507,-1486,-312,-36,269,405,-281
0,254963,-1653,687,-512,-1492,-306,-43,269,405,-281
0,254969,-1653,687,-512,-1492,-306,-43,269,405,-281
0,254974,-1653,687,-512,-1492,-306,-43,269,405,-281
0,254981,-1653,686,-514,-1486,-305,-44,269,405,-281
0,254986,-1653,686,-514,-1486,-305,-44,269,405,-281
0,254991,-1653,686,-514,-1486,-305,-44,269,405,-281
0,254997,-1653,686,-514,-1486,-305,-44,269,405,-281
0,255002,-1651,687,-510,-1493,-304,-33,269,405,-281
0,255007,-1651,687,-510,-1493,-304,-33,269,405,-281
0,255013,-1651,687,-510,-1493,-304,-33,269,405,-281
0,255017,-1651,687,-510,-1493,-304,-33,269,405,-281
0,255024,-1647,686,-514,-1488,-306,-39,269,405,-281
0,255029,-1647,686,-514,-1488,-306,-39,269,405,-281
0,255035,-1647,686,-514,-1488,-306,-39,269,405,-281
0,255040,-1647,685,-510,-1490,-305,-40,269,405,-281
0,255045,-1647,685,-510,-1490,-305,-40,269,405,-281
0,255051,-1647,685,-510,-1490,-305,-40,269,405,-281
0,255057,-1647,685,-510,-1490,-305,-40,269,405,-281
0,255063,-1649,686,-510,-1490,-307,-41,269,405,-281
0,255069,-1649,686,-510,-1490,-307,-41,269,405,-281
0,255074,-1649,686,-510,-1490,-307,-41,269,405,-281
0,255080,-1649,686,-510,-1490,-307,-41,269,405,-281
0,255085,-1647,686,-509,-1494,-310,-45,263,401,-285
0,255090,-1647,686,-509,-1494,-310,-45,263,401,-285
0,255095,-1647,686,-509,-1494,-310,-45,263,401,-285
0,255101,-1646,684,-507,-1490,-305,-50,263,401,-285
0,255107,-1646,684,-507,-1490,-305,-50,263,401,-285
0,255112,-1646,684,-507,-1490,-305,-50,263,401,-285
0,255117,-1646,684,-507,-1490,-305,-50,263,401,-285
0,255122,-1651,687,-510,-1495,-312,-53,263,401,-285
0,255127,-1651,687,-510,-1495,-312,-53,263,401,-285
0,255133,-1651,687,-510,-1495,-312,-53,263,401,-285
0,255138,-1651,687,-510,-1495,-312,-53,263,401,-285
0,255143,-1651,686,-509,-1500,-306,-46,263,401,-285
0,255150,-1651,686,-509,-1500,-306,-46,263,401,-285
0,255155,-1651,686,-509,-1500,-306,-46,263,401,-285
0,255161,-1650,682,-509,-1490,-308,-41,263,401,-285
0,255165,-1650,682,-509,-1490,-308,-41,263,401,-285
0,255171,-1650,682,-509,-1490,-308,-41,263,401,-285
0,255176,-1650,682,-509,-1490,-308,-41,263,401,-285
0,255182,-1648,684,-507,-1490,-311,-45,263,401,-285
0,255188,-1648,684,-507,-1490,-311,-45,263,401,-285
0,255194,-1648,684,-507,-1490,-311,-45,263,401,-285
0,255200,-1648,684,-507,-1490,-311,-45,263,401,-285
0,255205,-1650,688,-506,-1490,-311,-45,253,401,-281
0,255210,-1650,688,-506,-1490,-311,-45,253,401,-281
0,255215,-1650,688,-506,-1490,-311,-45,253,401,-281
0,255220,-1649,684,-510,-1486,-310,-41,253,401,-281
0,255226,-1649,684,-510,-1486,-310,-41,253,401,-281
0,255232,-1649,684,-510,-1486,-310,-41,253,401,-281
0,255238,-1649,684,-510,-1486,-310,-41,253,401,-281
0,255243,-1650,686,-511,-1484,-309,-45,253,401,-281
0,255248,-1650,686,-511,-1484,-309,-45,253,401,-281
0,255253,-1650,686,-511,-1484,-309,-45,253,401,-281
0,255259,-1650,686,-511,-1484,-309,-45,253,401,-281
0,255264,-1650,685,-513,-1487,-313,-38,253,401,-281
0,255270,-1650,685,-513,-1487,-313,-38,253,401,-281
0,255275,-1650,685,-513,-1487,-313,-38,253,401,-281
0,255281,-1650,687,-508,-1492,-308,-45,253,401,-281
0,255286,-1650,687,-508,-1492,-308,-45,253,401,-281
0,255292,-1650,687,-508,-1492,-308,-45,253,401,-281
0,255297,-1650,687,-508,-1492,-308,-45,253,401,-281
0,255303,-1652,685,-510,-1492,-306,-43,253,401,-281
0,255308,-1652,685,-510,-1492,-306,-43,253,401,-281
0,255313,-1652,685,-510,-1492,-306,-43,253,401,-281
0,255319,-1652,685,-510,-1492,-306,-43,253,401,-281
0,255325,-1648,684,-506,-1489,-314,-48,262,408,-278
0,255330,-1648,684,-506,-1489,-314,-48,262,408,-278
0,255335,-1648,684,-506,-1489,-314,-48,262,408,-278
0,255341,-1652,687,-508,-1494,-315,-42,262,408,-278
0,255346,-1652,687,-508,-1494,-315,-42,262,408,-278
0,255352,-1652,687,-508,-1494,-315,-42,262,408,-278
0,255357,-1652,687,-508,-1494,-315,-42,262,408,-278
0,255364,-1652,688,-511,-1494,-308,-46,262,408,-278
0,255369,-1652,688,-511,-1494,-308,-46,262,408,-278
0,255374,-1652,688,-511,-1494,-308,-46,262,408,-278
0,255380,-1652,688,-511,-1494,-308,-46,262,408,-278
0,255385,-1652,688,-512,-1490,-311,-45,262,408,-278
0,255391,-1652,688,-512,-1490,-311,-45,262,408,-278
0,255396,-1652,688,-512,-1490,-311,-45,262,408,-278
0,255401,-1649,684,-512,-1489,-311,-47,262,408,-278
0,255408,-1649,684,-512,-1489,-311,-47,262,408,-278
0,255413,-1649,684,-512,-1489,-311,-47,262,408,-278
0,255419,-1649,684,-512,-1489,-311,-47,262,408,-278
0,255424,-1649,687,-512,-1488,-310,-51,262,408,-278
0,255430,-1649,687,-512,-1488,-310,-51,262,408,-278
0,255435,-1649,687,-512,-1488,-310,-51,262,408,-278
0,255440,-1650,687,-511,-1494,-312,-47,260,402,-278
0,255447,-1650,687,-511,-1494,-312,-47,260,402,-278
0,255452,-1650,687,-511,-1494,-312,-47,260,402,-278
0,255458,-1650,687,-511,-1494,-312,-47,260,402,-278
0,255463,-1650,687,-508,-1493,-310,-40,260,402,-278
0,255468,-1650,687,-508,-1493,-310,-40,260,402,-278
0,255474,-1650,687,-508,-1493,-310,-40,260,402,-278
0,255479,-1650,687,-508,-1493,-310,-40,260,402,-278
0,255485,-1650,686,-514,-1496,-310,-45,260,402,-278
0,255491,-1650,686,-514,-1496,-310,-45,260,402,-278
0,255496,-1650,686,-514,-1496,-310,-45,260,402,-278
0,255502,-1650,688,-508,-1489,-310,-49,260,402,-278
0,255507,-1650,688,-508,-1489,-310,-49,260,402,-278
0,255512,-1650,688,-508,-1489,-310,-49,260,402,-278
0,255518,-1650,688,-508,-1489,-310,-49,260,402,-278
0,255523,-1651,684,-506,-1490,-311,-40,260,402,-278
0,255528,-1651,684,-506,-1490,-311,-40,260,402,-278
0,255535,-1651,684,-506,-1490,-311,-40,260,402,-278
0,255540,-1651,684,-506,-1490,-311,-40,260,402,-278
0,255545,-1648,687,-510,-1495,-306,-43,260,402,-278
0,255551,-1648,687,-510,-1495,-306,-43,260,402,-278
0,255556,-1648,687,-510,-1495,-306,-43,260,402,-278
0,255561,-1648,685,-508,-1491,-304,-47,258,402,-280
0,255566,-1648,685,-508,-1491,-304,-47,258,402,-280
0,255571,-1648,685,-508,-1491,-304,-47,258,402,-280
0,255578,-1648,685,-508,-1491,-304,-47,258,402,-280
0,255583,-1648,686,-505,-1488,-310,-46,258,402,-280
0,255588,-1648,686,-505,-1488,-310,-46,258,402,-280
0,255594,-1648,686,-505,-1488,-310,-46,258,402,-280
0,255599,-1648,686,-505,-1488,-310,-46,258,402,-280
0,255604,-1651,686,-510,-1489,-302,-46,258,402,-280
0,255610,-1651,686,-510,-1489,-302,-46,258,402,-280
0,255614,-1651,686,-510,-1489,-302,-46,258,402,-280
0,255621,-1651,687,-510,-1483,-304,-43,258,402,-280
0,255626,-1651,687,-510,-1483,-304,-43,258,402,-280
0,255631,-1651,687,-510,-1483,-304,-43,258,402,-280
0,255636,-1651,687,-510,-1483,-304,-43,258,402,-280
0,255641,-1649,688,-510,-1484,-314,-38,258,402,-280
0,255647,-1649,688,-510,-1484,-314,-38,258,402,-280
0,255653,-1649,688,-510,-1484,-314,-38,258,402,-280
0,255659,-1649,688,-510,-1484,-314,-38,258,402,-280
0,255664,-1650,687,-514,-1494,-309,-41,258,402,-280
0,255670,-1650,687,-514,-1494,-309,-41,258,402,-280
0,255675,-1650,687,-514,-1494,-309,-41,258,402,-280
0,255680,-1650,687,-514,-1494,-309,-41,258,402,-280
0,255685,-1650,684,-507,-1488,-308,-46,258,402,-280
0,255691,-1650,684,-507,-1488,-308,-46,258,402,-280
0,255697,-1650,684,-507,-1488,-308,-46,258,402,-280
0,255703,-1650,689,-505,-1490,-312,-49,247,403,-281
0,255708,-1650,689,-505,-1490,-312,-49,247,403,-281
0,255714,-1650,689,-505,-1490,-312,-49,247,403,-281
0,255719,-1650,689,-505,-1490,-312,-49,247,403,-281
0,255724,-1648,683,-506,-1489,-309,-42,247,403,-281
0,255729,-1648,683,-506,-1489,-309,-42,247,403,-281
0,255735,-1648,683,-506,-1489,-309,-42,247,403,-281
0,255741,-1648,683,-512,-1489,-312,-45,247,403,-281
0,255747,-1648,683,-512,-1489,-312,-45,247,403,-281
0,255752,-1648,683,-512,-1489,-312,-45,247,403,-281
0,255758,-1648,683,-512,-1489,-312,-45,247,403,-281
0,255763,-1649,686,-510,-1485,-310,-47,247,403,-281
0,255768,-1649,686,-510,-1485,-310,-47,247,403,-281
0,255774,-1649,686,-510,-1485,-310,-47,247,403,-281
0,255779,-1649,686,-510,-1485,-310,-47,247,403,-281
0,255785,-1650,685,-513,-1488,-314,-47,247,403,-281
0,255793,-1650,685,-513,-1488,-314,-47,247,403,-281
0,255798,-1650,685,-513,-1488,-314,-47,247,403,-281
0,255803,-1652,686,-511,-1486,-310,-45,247,403,-281
0,255809,-1652,686,-511,-1486,-310,-45,247,403,-281
0,255814,-1652,686,-511,-1486,-310,-45,247,403,-281
0,255820,-1652,686,-511,-1486,-310,-45,247,403,-281
0,255825,-1651,687,-514,-1488,-307,-43,260,408,-284
0,255832,-1651,687,-514,-1488,-307,-43,260,408,-284
0,255837,-1651,687,-514,-1488,-307,-43,260,408,-284
0,255843,-1649,687,-503,-1495,-311,-46,260,408,-284
0,255848,-1649,687,-503,-1495,-311,-46,260,408,-284
0,255854,-1649,687,-503,-1495,-311,-46,260,408,-284
0,255859,-1649,687,-503,-1495,-311,-46,260,408,-284
0,255864,-1649,687,-513,-1490,-314,-45,260,408,-284
0,255870,-1649,687,-513,-1490,-314,-45,260,408,-284
0,255876,-1649,687,-513,-1490,-314,-45,260,408,-284
0,255882,-1653,684,-510,-1486,-311,-41,260,408,-284
0,255887,-1653,684,-510,-1486,-311,-41,260,408,-284
0,255892,-1653,684,-510,-1486,-311,-41,260,408,-284
0,255898,-1653,684,-510,-1486,-311,-41,260,408,-284
0,255903,-1651,684,-512,-1488,-310,-43,260,408,-284
0,255908,-1651,684,-512,-1488,-310,-43,260,408,-284
0,255915,-1651,684,-512,-1488,-310,-43,260,408,-284
0,255920,-1651,684,-512,-1488,-310,-43,260,408,-284
0,255926,-1652,688,-511,-1487,-302,-45,260,408,-284
0,255931,-1652,688,-511,-1487,-302,-45,260,408,-284
0,255936,-1652,688,-511,-1487,-302,-45,260,408,-284
0,255942,-1649,687,-509,-1486,-304,-44,260,408,-280
0,255947,-1649,687,-509,-1486,-304,-44,260,408,-280
0,255953,-1649,687,-509,-1486,-304,-44,260,408,-280
0,255959,-1649,687,-509,-1486,-304,-44,260,408,-280
0,255964,-1652,685,-508,-1489,-311,-46,260,408,-280
0,255970,-1652,685,-508,-1489,-311,-46,260,408,-280
0,255975,-1652,685,-508,-1489,-311,-46,260,408,-280
0,255981,-1650,682,-513,-1488,-304,-35,260,408,-280
0,255986,-1650,682,-513,-1488,-304,-35,260,408,-280
0,255991,-1650,682,-513,-1488,-304,-35,260,408,-280
0,255996,-1650,682,-513,-1488,-304,-35,260,408,-280
0,256003,-1651,686,-508,-1492,-305,-48,260,408,-280
0,256008,-1651,686,-508,-1492,-305,-48,260,408,-280
0,256014,-1651,686,-508,-1492,-305,-48,260,408,-280
0,256020,-1651,686,-508,-1492,-305,-48,260,408,-280
0,256025,-1649,686,-507,-1486,-315,-47,260,408,-280
0,256031,-1649,686,-507,-1486,-315,-47,260,408,-280
0,256036,-1649,686,-507,-1486,-315,-47,260,408,-280
0,256043,-1651,685,-511,-1494,-307,-45,260,408,-280
0,256048,-1651,685,-511,-1494,-307,-45,260,408,-280
0,256053,-1651,685,-511,-1494,-307,-45,260,408,-280
0,256059,-1651,685,-511,-1494,-307,-45,260,408,-280
0,256064,-1650,690,-509,-1493,-310,-51,264,402,-282
0,256069,-1650,690,-509,-1493,-310,-51,264,402,-282
0,256075,-1650,690,-509,-1493,-310,-51,264,402,-282
0,256081,-1649,688,-510,-1487,-314,-52,264,402,-282
0,256087,-1649,688,-510,-1487,-314,-52,264,402,-282
0,256094,-1649,688,-510,-1487,-314,-52,264,402,-282
0,256099,-1649,688,-510,-1487,-314,-52,264,402,-282
0,256105,-1651,686,-506,-1491,-307,-53,264,402,-282
0,256110,-1651,686,-506,-1491,-307,-53,264,402,-282
0,256115,-1651,686,-506,-1491,-307,-53,264,402,-282
0,256121,-1650,687,-507,-1491,-307,-50,264,402,-282
0,256126,-1650,687,-507,-1491,-307,-50,264,402,-282
0,256133,-1650,687,-507,-1491,-307,-50,264,402,-282
0,256138,-1650,687,-507,-1491,-307,-50,264,402,-282
0,256144,-1651,687,-506,-1496,-311,-44,264,402,-282
0,256149,-1651,687,-506,-1496,-311,-44,264,402,-282
0,256154,-1651,687,-506,-1496,-311,-44,264,402,-282
0,256159,-1651,687,-506,-1496,-311,-44,264,402,-282
0,256165,-1648,684,-514,-1487,-309,-51,264,402,-282
0,256171,-1648,684,-514,-1487,-309,-51,264,402,-282
0,256177,-1648,684,-514,-1487,-309,-51,264,402,-282
0,256182,-1653,683,-511,-1484,-303,-46,254,408,-272
0,256188,-1653,683,-511,-1484,-303,-46,254,408,-272
0,256193,-1653,683,-511,-1484,-303,-46,254,408,-272
0,256198,-1653,683,-511,-1484,-303,-46,254,408,-272
0,256204,-1650,686,-510,-1491,-306,-38,254,408,-272
0,256209,-1650,686,-510,-1491,-306,-38,254,408,-272
0,256216,-1650,686,-510,-1491,-306,-38,254,408,-272
0,256221,-1649,683,-507,-1498,-309,-47,254,408,-272
0,256226,-1649,683,-507,-1498,-309,-47,254,408,-272
0,256232,-1649,683,-507,-1498,-309,-47,254,408,-272
0,256237,-1649,683,-507,-1498,-309,-47,254,408,-272
0,256242,-1652,685,-510,-1492,-313,-42,254,408,-272
0,256248,-1652,685,-510,-1492,-313,-42,254,408,-272
0,256253,-1652,685,-510,-1492,-313,-42,254,408,-272
0,256259,-1652,685,-510,-1492,-313,-42,254,408,-272
0,256264,-1651,688,-508,-1490,-310,-44,254,408,-272
0,256270,-1651,688,-508,-1490,-310,-44,254,408,-272
0,256275,-1651,688,-508,-1490,-310,-44,254,408,-272
0,256280,-1650,689,-510,-1488,-311,-47,254,408,-272
0,256286,-1650,689,-510,-1488,-311,-47,254,408,-272
0,256291,-1650,689,-510,-1488,-311,-47,254,408,-272
0,256297,-1650,689,-510,-1488,-311,-47,254,408,-272
0,256303,-1650,685,-513,-1490,-314,-35,254,408,-272
0,256308,-1650,685,-513,-1490,-314,-35,254,408,-272
0,256313,-1650,685,-513,-1490,-314,-35,254,408,-272
0,256318,-1650,685,-513,-1490,-314,-35,254,408,-272
0,256324,-1650,686,-510,-1487,-314,-43,251,409,-285
0,256329,-1650,686,-510,-1487,-314,-43,251,409,-285
0,256335,-1650,686,-510,-1487,-314,-43,251,409,-285
0,256340,-1650,686,-510,-1487,-314,-43,251,409,-285
0,256346,-1650,684,-508,-1491,-310,-44,251,409,-285
0,256351,-1650,684,-508,-1491,-310,-44,251,409,-285
0,256357,-1650,684,-508,-1491,-310,-44,251,409,-285
0,256362,-1652,684,-506,-1494,-309,-44,251,409,-285
0,256367,-1652,684,-506,-1494,-309,-44,251,409,-285
0,256372,-1652,684,-506,-1494,-309,-44,251,409,-285
0,256378,-1652,684,-506,-1494,-309,-44,251,409,-285
0,256384,-1650,684,-509,-1493,-308,-41,251,409,-285
0,256390,-1650,684,-509,-1493,-308,-41,251,409,-285
0,256395,-1650,684,-509,-1493,-308,-41,251,409,-285
0,256401,-1650,684,-509,-1493,-308,-41,251,409,-285
0,256406,-1649,683,-508,-1490,-313,-32,251,409,-285
0,256411,-1649,683,-508,-1490,-313,-32,251,409,-285
0,256417,-1649,683,-508,-1490,-313,-32,251,409,-285
0,256422,-1651,684,-512,-1491,-313,-39,251,409,-285
0,256428,-1651,684,-512,-1491,-313,-39,251,409,-285
0,256434,-1651,684,-512,-1491,-313,-39,251,409,-285
0,256439,-1651,684,-512,-1491,-313,-39,251,409,-285
0,256444,-1650,684,-503,-1490,-309,-45,262,408,-280
0,256449,-1650,684,-503,-1490,-309,-45,262,408,-280
0,256455,-1650,684,-503,-1490,-309,-45,262,408,-280
0,256460,-1650,684,-503,-1490,-309,-45,262,408,-280
0,256465,-1648,687,-507,-1491,-304,-42,262,408,-280
0,256471,-1648,687,-507,-1491,-304,-42,262,408,-280
0,256477,-1648,687,-507,-1491,-304,-42,262,408,-280
0,256482,-1649,687,-503,-1488,-302,-42,262,408,-280
0,256488,-1649,687,-503,-1488,-302,-42,262,408,-280
0,256493,-1649,687,-503,-1488,-302,-42,262,408,-280
0,256499,-1649,687,-503,-1488,-302,-42,262,408,-280
0,256504,-1650,688,-513,-1494,-305,-40,262,408,-280
0,256509,-1650,688,-513,-1494,-305,-40,262,408,-280
0,256515,-1650,688,-513,-1494,-305,-40,262,408,-280
0,256520,-1650,688,-513,-1494,-305,-40,262,408,-280
0,256526,-1652,689,-508,-1497,-300,-44,262,408,-280
0,256531,-1652,689,-508,-1497,-300,-44,262,408,-280
0,256536,-1652,689,-508,-1497,-300,-44,262,408,-280
0,256541,-1649,684,-512,-1484,-307,-42,262,408,-280
0,256546,-1649,684,-512,-1484,-307,-42,262,408,-280
0,256551,-1649,684,-512,-1484,-307,-42,262,408,-280
0,256558,-1649,684,-512,-1484,-307,-42,262,408,-280
0,256563,-1650,685,-510,-1484,-299,-47,267,399,-279
0,256568,-1650,685,-510,-1484,-299,-47,267,399,-279
0,256574,-1650,685,-510,-1484,-299,-47,267,399,-279
0,256579,-1650,685,-510,-1484,-299,-47,267,399,-279
0,256584,-1650,684,-511,-1482,-306,-45,267,399,-279
0,256590,-1650,684,-511,-1482,-306,-45,267,399,-279
0,256595,-1650,684,-511,-1482,-306,-45,267,399,-279
0,256601,-1649,687,-510,-1486,-308,-48,267,399,-279
0,256606,-1649,687,-510,-1486,-308,-48,267,399,-279
0,256612,-1649,687,-510,-1486,-308,-48,267,399,-279
0,256617,-1649,687,-510,-1486,-308,-48,267,399,-279
0,256623,-1651,686,-508,-1484,-310,-53,267,399,-279
0,256628,-1651,686,-508,-1484,-310,-53,267,399,-279
0,256633,-1651,686,-508,-1484,-310,-53,267,399,-279
0,256640,-1651,686,-508,-1484,-310,-53,267,399,-279
0,256645,-1652,687,-509,-1491,-309,-43,267,399,-279
0,256650,-1652,687,-509,-1491,-309,-43,267,399,-279
0,256656,-1652,687,-509,-1491,-309,-43,267,399,-279
0,256661,-1649,684,-508,-1492,-303,-45,267,399,-279
0,256667,-1649,684,-508,-1492,-303,-45,267,399,-279
0,256672,-1649,684,-508,-1492,-303,-45,267,399,-279
0,256678,-1649,684,-508,-1492,-303,-45,267,399,-279
0,256684,-1651,686,-507,-1492,-312,-41,253,403,-281
0,256689,-1651,686,-507,-1492,-312,-41,253,403,-281
0,256694,-1651,686,-507,-1492,-312,-41,253,403,-281
0,256700,-1651,686,-507,-1492,-312,-41,253,403,-281
0,256705,-1649,684,-507,-1494,-308,-40,253,403,-281
0,256711,-1649,684,-507,-1494,-308,-40,253,403,-281
0,256716,-1649,684,-507,-1494,-308,-40,253,403,-281
0,256721,-1650,687,-510,-1492,-309,-40,253,403,-281
0,256728,-1650,687,-510,-1492,-309,-40,253,403,-281
0,256733,-1650,687,-510,-1492,-309,-40,253,403,-281
0,256739,-1650,687,-510,-1492,-309,-40,253,403,-281
0,256744,-1652,686,-510,-1493,-308,-42,253,403,-281
0,256749,-1652,686,-510,-1493,-308,-42,253,403,-281
0,256755,-1652,686,-510,-1493,-308,-42,253,403,-281
0,256760,-1652,686,-510,-1493,-308,-42,253,403,-281
0,256765,-1649,684,-505,-1489,-302,-43,253,403,-281
0,256771,-1649,684,-505,-1489,-302,-43,253,403,-281
0,256777,-1649,684,-505,-1489,-302,-43,253,403,-281
0,256782,-1649,684,-505,-1489,-302,-43,253,403,-281
0,256787,-1649,684,-505,-1489,-302,-43,253,403,-281
0,256793,-1649,684,-505,-1489,-302,-43,253,403,-281
0,256800,-1649,684,-505,-1489,-302,-43,253,403,-281
0,256806,-1651,685,-505,-1490,-315,-39,257,401,-287
0,256813,-1651,685,-505,-1490,-315,-39,257,401,-287
0,256818,-1651,685,-505,-1490,-315,-39,257,401,-287
0,256823,-1647,682,-505,-1488,-308,-51,257,401,-287
0,256828,-1647,682,-505,-1488,-308,-51,257,401,-287
0,256834,-1647,682,-505,-1488,-308,-51,257,401,-287
0,256839,-1647,682,-505,-1488,-308,-51,257,401,-287
0,256844,-1650,688,-512,-1490,-312,-45,257,401,-287
0,256850,-1650,688,-512,-1490,-312,-45,257,401,-287
0,256856,-1650,688,-512,-1490,-312,-45,257,401,-287
0,256862,-1650,688,-512,-1490,-312,-45,257,401,-287
0,256867,-1650,688,-512,-1490,-312,-45,257,401,-287
0,256872,-1650,688,-512,-1490,-312,-45,257,401,-287
0,256878,-1650,688,-512,-1490,-312,-45,257,401,-287
0,256883,-1650,685,-508,-1495,-311,-46,257,401,-287
0,256889,-1650,685,-508,-1495,-311,-46,257,401,-287
0,256894,-1650,685,-508,-1495,-311,-46,257,401,-287
0,256901,-1650,685,-508,-1495,-311,-46,257,401,-287
0,256906,-1650,685,-507,-1495,-312,-53,257,401,-287
0,256912,-1650,685,-507,-1495,-312,-53,257,401,-287
0,256917,-1650,685,-507,-1495,-312,-53,257,401,-287
0,256923,-1648,685,-516,-1491,-305,-44,257,401,-287
0,256928,-1648,685,-516,-1491,-305,-44,257,401,-287
0,256933,-1648,685,-516,-1491,-305,-44,257,401,-287
0,256940,-1648,685,-516,-1491,-305,-44,257,401,-287
0,256945,-1651,689,-503,-1483,-306,-47,260,410,-278
0,256950,-1651,689,-503,-1483,-306,-47,260,410,-278
0,256955,-1651,689,-503,-1483,-306,-47,260,410,-278
0,256960,-1651,689,-503,-1483,-306,-47,260,410,-278
0,256966,-1653,686,-506,-1489,-311,-39,260,410,-278
0,256971,-1653,686,-506,-1489,-311,-39,260,410,-278
0,256976,-1653,686,-506,-1489,-311,-39,260,410,-278
0,256982,-1651,688,-506,-1488,-314,-45,260,410,-278
0,256987,-1651,688,-506,-1488,-314,-45,260,410,-278
0,256993,-1651,688,-506,-1488,-314,-45,260,410,-278
0,256998,-1651,688,-506,-1488,-314,-45,260,410,-278
0,257004,-1649,686,-511,-1483,-307,-50,260,410,-278
0,257009,-1649,686,-511,-1483,-307,-50,260,410,-278
0,257015,-1649,686,-511,-1483,-307,-50,260,410,-278
0,257020,-1649,686,-511,-1483,-307,-50,260,410,-278
0,257026,-1647,687,-510,-1491,-310,-46,260,410,-278
0,257032,-1647,687,-510,-1491,-310,-46,260,410,-278
0,257037,-1647,687,-510,-1491,-310,-46,260,410,-278
0,257042,-1649,688,-509,-1487,-308,-43,260,410,-278
0,257048,-1649,688,-509,-1487,-308,-43,260,410,-278
0,257053,-1649,688,-509,-1487,-308,-43,260,410,-278
0,257059,-1649,688,-509,-1487,-308,-43,260,410,-278
0,257064,-1649,688,-507,-1494,-299,-44,257,411,-275
0,257070,-1649,688,-507,-1494,-299,-44,257,411,-275
0,257075,-1649,688,-507,-1494,-299,-44,257,411,-275
0,257081,-1649,688,-507,-1494,-299,-44,257,411,-275
0,257086,-1648,687,-509,-1483,-308,-44,257,411,-275
0,257092,-1648,687,-509,-1483,-308,-44,257,411,-275
0,257097,-1648,687,-509,-1483,-308,-44,257,411,-275
0,257103,-1650,687,-510,-1481,-307,-47,257,411,-275
0,257108,-1650,687,-510,-1481,-307,-47,257,411,-275
0,257114,-1650,687,-510,-1481,-307,-47,257,411,-275
0,257120,-1650,687,-510,-1481,-307,-47,257,411,-275
0,257125,-1651,686,-508,-1485,-302,-42,257,411,-275
0,257131,-1651,686,-508,-1485,-302,-42,257,411,-275
0,257136,-1651,686,-508,-1485,-302,-42,257,411,-275
0,257141,-1647,684,-512,-1489,-311,-37,257,411,-275
0,257147,-1647,684,-512,-1489,-311,-37,257,411,-275
0,257154,-1647,684,-512,-1489,-311,-37,257,411,-275
0,257158,-1647,684,-512,-1489,-311,-37,257,411,-275
0,257164,-1650,685,-511,-1491,-314,-45,257,411,-275
0,257169,-1650,685,-511,-1491,-314,-45,257,411,-275
0,257174,-1650,685,-511,-1491,-314,-45,257,411,-275
0,257179,-1650,685,-511,-1491,-314,-45,257,411,-275
0,257184,-1648,686,-510,-1487,-315,-47,261,403,-283
0,257190,-1648,686,-510,-1487,-315,-47,261,403,-283
0,257196,-1648,686,-510,-1487,-315,-47,261,403,-283
0,257201,-1648,686,-510,-1487,-315,-47,261,403,-283
0,257206,-1650,686,-508,-1488,-319,-41,261,403,-283
0,257211,-1650,686,-508,-1488,-319,-41,261,403,-283
0,257217,-1650,686,-508,-1488,-319,-41,261,403,-283
0,257222,-1648,685,-510,-1484,-313,-43,261,403,-283
0,257227,-1648,685,-510,-1484,-313,-43,261,403,-283
0,257233,-1648,685,-510,-1484,-313,-43,261,403,-283
0,257239,-1648,685,-510,-1484,-313,-43,261,403,-283
0,257244,-1647,687,-507,-1491,-309,-48,261,403,-283
0,257249,-1647,687,-507,-1491,-309,-48,261,403,-283
0,257255,-1647,687,-507,-1491,-309,-48,261,403,-283
0,257260,-1647,687,-507,-1491,-309,-48,261,403,-283
0,257265,-1649,684,-505,-1486,-306,-54,261,403,-283
0,257271,-1649,684,-505,-1486,-306,-54,261,403,-283
0,257276,-1649,684,-505,-1486,-306,-54,261,403,-283
0,257282,-1651,685,-511,-1489,-310,-44,261,403,-283
0,257287,-1651,685,-511,-1489,-310,-44,261,403,-283
0,257293,-1651,685,-511,-1489,-310,-44,261,403,-283
0,257298,-1651,685,-511,-1489,-310,-44,261,403,-283
0,257303,-1647,689,-508,-1485,-304,-40,258,402,-272
0,257309,-1647,689,-508,-1485,-304,-40,258,402,-272
0,257314,-1647,689,-508,-1485,-304,-40,258,402,-272
0,257319,-1647,689,-508,-1485,-304,-40,258,402,-272
0,257326,-1649,683,-506,-1484,-312,-43,258,402,-272
0,257331,-1649,683,-506,-1484,-312,-43,258,402,-272
0,257337,-1649,683,-506,-1484,-312,-43,258,402,-272
0,257342,-1650,685,-511,-1490,-312,-43,258,402,-272
0,257347,-1650,685,-511,-1490,-312,-43,258,402,-272
0,257353,-1650,685,-511,-1490,-312,-43,258,402,-272
0,257358,-1650,685,-511,-1490,-312,-43,258,402,-272
0,257364,-1649,684,-504,-1493,-309,-41,258,402,-272
0,257370,-1649,684,-504,-1493,-309,-41,258,402,-272
0,257376,-1649,684,-504,-1493,-309,-41,258,402,-272
0,257381,-1649,684,-504,-1493,-309,-41,258,402,-272
0,257386,-1651,685,-504,-1489,-315,-47,258,402,-272
0,257391,-1651,685,-504,-1489,-315,-47,258,402,-272
0,257396,-1651,685,-504,-1489,-315,-47,258,402,-272
0,257402,-1649,687,-505,-1490,-314,-44,258,402,-272
0,257408,-1649,687,-505,-1490,-314,-44,258,402,-272
0,257414,-1649,687,-505,-1490,-314,-44,258,402,-272
0,257419,-1649,687,-505,-1490,-314,-44,258,402,-272
0,257424,-1650,687,-509,-1490,-314,-43,256,402,-288
0,257430,-1650,687,-509,-1490,-314,-43,256,402,-288
0,257435,-1650,687,-509,-1490,-314,-43,256,402,-288
0,257440,-1650,687,-509,-1490,-314,-43,256,402,-288
0,257446,-1649,686,-507,-1489,-306,-43,256,402,-288
0,257452,-1649,686,-507,-1489,-306,-43,256,402,-288
0,257458,-1649,686,-507,-1489,-306,-43,256,402,-288
0,257463,-1653,686,-507,-1492,-310,-47,256,402,-288
0,257469,-1653,686,-507,-1492,-310,-47,256,402,-288
0,257474,-1653,686,-507,-1492,-310,-47,256,402,-288
0,257479,-1653,686,-507,-1492,-310,-47,256,402,-288
0,257485,-1652,683,-511,-1483,-310,-38,256,402,-288
0,257490,-1652,683,-511,-1483,-310,-38,256,402,-288
0,257496,-1652,683,-511,-1483,-310,-38,256,402,-288
0,257502,-1648,688,-508,-1482,-307,-44,256,402,-288
0,257507,-1648,688,-508,-1482,-307,-44,256,402,-288
0,257512,-1648,688,-508,-1482,-307,-44,256,402,-288
0,257518,-1648,688,-508,-1482,-307,-44,256,402,-288
0,257523,-1651,683,-506,-1487,-306,-43,256,402,-288
0,257528,-1651,683,-506,-1487,-306,-43,256,402,-288
0,257534,-1651,683,-506,-1487,-306,-43,256,402,-288
0,257540,-1651,683,-506,-1487,-306,-43,256,402,-288
0,257546,-1647,687,-510,-1489,-307,-50,256,402,-288
0,257551,-1647,687,-510,-1489,-307,-50,256,402,-288
0,257557,-1647,687,-510,-1489,-307,-50,256,402,-288
0,257562,-1650,687,-505,-1493,-310,-53,260,412,-282
0,257567,-1650,687,-505,-1493,-310,-53,260,412,-282
0,257572,-1650,687,-505,-1493,-310,-53,260,412,-282
0,257579,-1650,687,-505,-1493,-310,-53,260,412,-282
0,257584,-1649,687,-510,-1496,-306,-43,260,412,-282
0,257589,-1649,687,-510,-1496,-306,-43,260,412,-282
0,257594,-1649,687,-510,-1496,-306,-43,260,412,-282
0,257599,-1649,687,-510,-1496,-306,-43,260,412,-282
0,257604,-1648,686,-509,-1486,-307,-47,260,412,-282
0,257610,-1648,686,-509,-1486,-307,-47,260,412,-282
0,257615,-1648,686,-509,-1486,-307,-47,260,412,-282
0,257620,-1648,686,-509,-1486,-307,-47,260,412,-282
0,257627,-1650,685,-512,-1487,-305,-43,260,412,-282
0,257632,-1650,685,-512,-1487,-305,-43,260,412,-282
0,257638,-1650,685,-512,-1487,-305,-43,260,412,-282
0,257643,-1652,687,-514,-1487,-311,-43,260,412,-282
0,257648,-1652,687,-514,-1487,-311,-43,260,412,-282
0,257654,-1652,687,-514,-1487,-311,-43,260,412,-282
0,257659,-1652,687,-514,-1487,-311,-43,260,412,-282
0,257667,-1651,687,-512,-1487,-308,-48,260,412,-282
0,257673,-1651,687,-512,-1487,-308,-48,260,412,-282
0,257680,-1651,687,-512,-1487,-308,-48,260,412,-282
0,257685,-1651,686,-507,-1483,-304,-50,262,402,-282
0,257692,-1651,686,-507,-1483,-304,-50,262,402,-282
0,257697,-1651,686,-507,-1483,-304,-50,262,402,-282
0,257702,-1649,687,-509,-1480,-306,-50,262,402,-282
0,257708,-1649,687,-509,-1480,-306,-50,262,402,-282
0,257712,-1649,687,-509,-1480,-306,-50,262,402,-282
0,257716,-1649,687,-509,-1480,-306,-50,262,402,-282
0,257721,-1649,687,-509,-1480,-306,-50,262,402,-282
0,257725,-1650,685,-512,-1487,-310,-46,262,402,-282
0,257730,-1650,685,-512,-1487,-310,-46,262,402,-282
0,257735,-1650,685,-512,-1487,-310,-46,262,402,-282
0,257740,-1650,685,-512,-1487,-310,-46,262,402,-282
0,257745,-1650,683,-511,-1489,-305,-49,262,402,-282
0,257751,-1650,683,-511,-1489,-305,-49,262,402,-282
0,257757,-1650,683,-511,-1489,-305,-49,262,402,-282
0,257762,-1649,688,-505,-1484,-314,-41,262,402,-282
0,257767,-1649,688,-505,-1484,-314,-41,262,402,-282
0,257772,-1649,688,-505,-1484,-314,-41,262,402,-282
0,257778,-1649,688,-505,-1484,-314,-41,262,402,-282
0,257783,-1650,684,-510,-1494,-308,-42,262,402,-282
0,257790,-1650,684,-510,-1494,-308,-42,262,402,-282
0,257796,-1650,684,-510,-1494,-308,-42,262,402,-282
0,257801,-1650,684,-510,-1494,-308,-42,262,402,-282
0,257806,-1652,685,-506,-1486,-304,-46,258,400,-278
0,257811,-1652,685,-506,-1486,-304,-46,258,400,-278
0,257816,-1652,685,-506,-1486,-304,-46,258,400,-278
0,257822,-1652,684,-508,-1488,-307,-49,258,400,-278
0,257827,-1652,684,-508,-1488,-307,-49,258,400,-278
0,257832,-1652,684,-508,-1488,-307,-49,258,400,-278
0,257838,-1652,684,-508,-1488,-307,-49,258,400,-278
0,257843,-1650,684,-505,-1487,-306,-48,258,400,-278
0,257849,-1650,684,-505,-1487,-306,-48,258,400,-278
0,257856,-1650,684,-505,-1487,-306,-48,258,400,-278
0,257861,-1650,684,-505,-1487,-306,-48,258,400,-278
0,257866,-1650,685,-507,-1494,-316,-44,258,400,-278
0,257872,-1650,685,-507,-1494,-316,-44,258,400,-278
0,257879,-1650,685,-507,-1494,-316,-44,258,400,-278
0,257884,-1649,683,-508,-1494,-308,-43,258,400,-278
0,257889,-1649,683,-508,-1494,-308,-43,258,400,-278
0,257894,-1649,683,-508,-1494,-308,-43,258,400,-278
0,257900,-1649,683,-508,-1494,-308,-43,258,400,-278
0,257905,-1652,687,-504,-1490,-305,-45,258,400,-278
0,257910,-1652,687,-504,-1490,-305,-45,258,400,-278
0,257915,-1652,687,-504,-1490,-305,-45,258,400,-278
0,257922,-1652,687,-504,-1490,-305,-45,258,400,-278
0,257927,-1651,684,-507,-1491,-306,-42,259,405,-277
0,257933,-1651,684,-507,-1491,-306,-42,259,405,-277
0,257938,-1651,684,-507,-1491,-306,-42,259,405,-277
0,257944,-1647,685,-504,-1496,-306,-50,259,405,-277
0,257950,-1647,685,-504,-1496,-306,-50,259,405,-277
0,257955,-1647,685,-504,-1496,-306,-50,259,405,-277
0,257960,-1647,685,-504,-1496,-306,-50,259,405,-277
0,257966,-1652,685,-507,-1487,-301,-50,259,405,-277
0,257971,-1652,685,-507,-1487,-301,-50,259,405,-277
0,257976,-1652,685,-507,-1487,-301,-50,259,405,-277
0,257982,-1648,684,-507,-1487,-308,-41,259,405,-277
0,257987,-1648,684,-507,-1487,-308,-41,259,405,-277
0,257992,-1648,684,-507,-1487,-308,-41,259,405,-277
0,257997,-1648,684,-507,-1487,-308,-41,259,405,-277
0,258003,-1651,687,-507,-1493,-312,-43,259,405,-277
0,258009,-1651,687,-507,-1493,-312,-43,259,405,-277
0,258014,-1651,687,-507,-1493,-312,-43,259,405,-277
0,258020,-1651,687,-507,-1493,-312,-43,259,405,-277
0,258025,-1647,685,-513,-1490,-297,-44,259,405,-277
0,258031,-1647,685,-513,-1490,-297,-44,259,405,-277
0,258036,-1647,685,-513,-1490,-297,-44,259,405,-277
0,258042,-1648,683,-509,-1486,-299,-48,259,405,-277
0,258048,-1648,683,-509,-1486,-299,-48,259,405,-277
0,258054,-1648,683,-509,-1486,-299,-48,259,405,-277
0,258060,-1648,683,-509,-1486,-299,-48,259,405,-277
0,258065,-1652,689,-509,-1484,-302,-39,262,412,-270
0,258071,-1652,689,-509,-1484,-302,-39,262,412,-270
0,258076,-1652,689,-509,-1484,-302,-39,262,412,-270
0,258081,-1651,685,-508,-1488,-305,-37,262,412,-270
0,258087,-1651,685,-508,-1488,-305,-37,262,412,-270
0,258093,-1651,685,-508,-1488,-305,-37,262,412,-270
0,258099,-1651,685,-508,-1488,-305,-37,262,412,-270
0,258104,-1650,685,-509,-1491,-314,-38,262,412,-270
0,258109,-1650,685,-509,-1491,-314,-38,262,412,-270
0,258115,-1650,685,-509,-1491,-314,-38,262,412,-270
0,258121,-1650,685,-509,-1491,-314,-38,262,412,-270
0,258125,-1649,684,-509,-1492,-306,-49,262,412,-270
0,258131,-1649,684,-509,-1492,-306,-49,262,412,-270
0,258138,-1649,684,-509,-1492,-306,-49,262,412,-270
0,258143,-1651,685,-511,-1489,-313,-45,262,412,-270
0,258149,-1651,685,-511,-1489,-313,-45,262,412,-270
0,258155,-1651,685,-511,-1489,-313,-45,262,412,-270
0,258160,-1651,685,-511,-1489,-313,-45,262,412,-270
0,258165,-1649,688,-507,-1488,-311,-44,262,412,-270
0,258170,-1649,688,-507,-1488,-311,-44,262,412,-270
0,258177,-1649,688,-507,-1488,-311,-44,262,412,-270
0,258182,-1650,685,-507,-1487,-306,-49,259,401,-281
0,258188,-1650,685,-507,-1487,-306,-49,259,401,-281
0,258193,-1650,685,-507,-1487,-306,-49,259,401,-281
0,258198,-1650,685,-507,-1487,-306,-49,259,401,-281
0,258203,-1649,685,-512,-1488,-311,-47,259,401,-281
0,258209,-1649,685,-512,-1488,-311,-47,259,401,-281
0,258213,-1649,685,-512,-1488,-311,-47,259,401,-281
0,258220,-1649,685,-512,-1488,-311,-47,259,401,-281
0,258226,-1649,685,-509,-1486,-311,-52,259,401,-281
0,258231,-1649,685,-509,-1486,-311,-52,259,401,-281
0,258237,-1649,685,-509,-1486,-311,-52,259,401,-281
0,258242,-1648,686,-508,-1489,-307,-47,259,401,-281
0,258247,-1648,686,-508,-1489,-307,-47,259,401,-281
0,258252,-1648,686,-508,-1489,-307,-47,259,401,-281
0,258257,-1648,686,-508,-1489,-307,-47,259,401,-281
0,258264,-1649,684,-508,-1496,-305,-38,259,401,-281
0,258269,-1649,684,-508,-1496,-305,-38,259,401,-281
0,258274,-1649,684,-508,-1496,-305,-38,259,401,-281
0,258279,-1649,684,-508,-1496,-305,-38,259,401,-281
0,258285,-1649,683,-508,-1495,-306,-47,259,401,-281
0,258290,-1649,683,-508,-1495,-306,-47,259,401,-281
0,258294,-1649,683,-508,-1495,-306,-47,259,401,-281
0,258300,-1649,683,-508,-1495,-306,-47,259,401,-281
0,258306,-1647,684,-511,-1491,-306,-43,259,397,-285
0,258312,-1647,684,-511,-1491,-306,-43,259,397,-285
0,258317,-1647,684,-511,-1491,-306,-43,259,397,-285
0,258323,-1651,686,-508,-1485,-311,-41,259,397,-285
0,258327,-1651,686,-508,-1485,-311,-41,259,397,-285
0,258333,-1651,686,-508,-1485,-311,-41,259,397,-285
0,258338,-1651,686,-508,-1485,-311,-41,259,397,-285
0,258343,-1648,687,-506,-1487,-315,-40,259,397,-285
0,258350,-1648,687,-506,-1487,-315,-40,259,397,-285
0,258355,-1648,687,-506,-1487,-315,-40,259,397,-285
0,258361,-1648,687,-506,-1487,-315,-40,259,397,-285
0,258366,-1649,686,-511,-1483,-308,-53,259,397,-285
0,258371,-1649,686,-511,-1483,-308,-53,259,397,-285
0,258376,-1649,686,-511,-1483,-308,-53,259,397,-285
0,258381,-1648,684,-507,-1488,-307,-44,259,397,-285
0,258387,-1648,684,-507,-1488,-307,-44,259,397,-285
0,258394,-1648,684,-507,-1488,-307,-44,259,397,-285
0,258399,-1648,684,-507,-1488,-307,-44,259,397,-285
0,258405,-1650,684,-517,-1490,-305,-47,259,397,-285
0,258410,-1650,684,-517,-1490,-305,-47,259,397,-285
0,258415,-1650,684,-517,-1490,-305,-47,259,397,-285
0,258421,-1650,684,-517,-1490,-305,-47,259,397,-285
0,258426,-1647,684,-507,-1485,-308,-53,262,398,-278
0,258432,-1647,684,-507,-1485,-308,-53,262,398,-278
0,258438,-1647,684,-507,-1485,-308,-53,262,398,-278
0,258443,-1649,687,-511,-1480,-310,-43,262,398,-278
0,258448,-1649,687,-511,-1480,-310,-43,262,398,-278
0,258454,-1649,687,-511,-1480,-310,-43,262,398,-278
0,258459,-1649,687,-511,-1480,-310,-43,262,398,-278
0,258464,-1647,688,-507,-1491,-312,-35,262,398,-278
0,258469,-1647,688,-507,-1491,-312,-35,262,398,-278
0,258476,-1647,688,-507,-1491,-312,-35,262,398,-278
0,258481,-1647,688,-507,-1491,-312,-35,262,398,-278
0,258486,-1651,684,-512,-1490,-310,-44,262,398,-278
0,258491,-1651,684,-512,-1490,-310,-44,262,398,-278
0,258496,-1651,684,-512,-1490,-310,-44,262,398,-278
0,258502,-1649,686,-511,-1490,-307,-41,262,398,-278
0,258507,-1649,686,-511,-1490,-307,-41,262,398,-278
0,258512,-1649,686,-511,-1490,-307,-41,262,398,-278
0,258519,-1649,686,-511,-1490,-307,-41,262,398,-278
0,258524,-1647,689,-508,-1489,-305,-48,262,398,-278
0,258529,-1647,689,-508,-1489,-305,-48,262,398,-278
0,258534,-1647,689,-508,-1489,-305,-48,262,398,-278
0,258540,-1647,689,-508,-1489,-305,-48,262,398,-278
0,258545,-1648,687,-509,-1488,-308,-52,261,411,-275
0,258551,-1648,687,-509,-1488,-308,-52,261,411,-275
0,258556,-1648,687,-509,-1488,-308,-52,261,411,-275
0,258562,-1648,687,-509,-1488,-308,-52,261,411,-275
0,258567,-1653,688,-508,-1494,-311,-44,261,411,-275
0,258572,-1653,688,-508,-1494,-311,-44,261,411,-275
0,258577,-1653,688,-508,-1494,-311,-44,261,411,-275
0,258583,-1652,687,-507,-1493,-308,-44,261,411,-275
0,258588,-1652,687,-507,-1493,-308,-44,261,411,-275
0,258593,-1652,687,-507,-1493,-308,-44,261,411,-275
0,258598,-1652,687,-507,-1493,-308,-44,261,411,-275
0,258605,-1651,685,-506,-1490,-303,-53,261,411,-275
0,258611,-1651,685,-506,-1490,-303,-53,261,411,-275
0,258615,-1651,685,-506,-1490,-303,-53,261,411,-275
0,258621,-1651,685,-506,-1490,-303,-53,261,411,-275
0,258626,-1650,688,-509,-1495,-307,-51,261,411,-275
0,258632,-1650,688,-509,-1495,-307,-51,261,411,-275
0,258637,-1650,688,-509,-1495,-307,-51,261,411,-275
0,258642,-1649,684,-507,-1493,-311,-37,261,411,-275
0,258649,-1649,684,-507,-1493,-311,-37,261,411,-275
0,258655,-1649,684,-507,-1493,-311,-37,261,411,-275
0,258660,-1649,684,-507,-1493,-311,-37,261,411,-275
0,258665,-1649,686,-510,-1488,-306,-45,261,411,-275
0,258670,-1649,686,-510,-1488,-306,-45,261,411,-275
0,258676,-1649,686,-510,-1488,-306,-45,261,411,-275
0,258681,-1647,686,-507,-1492,-309,-44,261,407,-287
0,258686,-1647,686,-507,-1492,-309,-44,261,407,-287
0,258693,-1647,686,-507,-1492,-309,-44,261,407,-287
0,258698,-1647,686,-507,-1492,-309,-44,261,407,-287
0,258704,-1649,685,-503,-1489,-311,-46,261,407,-287
0,258709,-1649,685,-503,-1489,-311,-46,261,407,-287
0,258714,-1649,685,-503,-1489,-311,-46,261,407,-287
0,258720,-1649,685,-503,-1489,-311,-46,261,407,-287
0,258725,-1650,685,-507,-1488,-313,-47,261,407,-287
0,258731,-1650,685,-507,-1488,-313,-47,261,407,-287
0,258737,-1650,685,-507,-1488,-313,-47,261,407,-287
0,258743,-1652,685,-510,-1487,-305,-47,261,407,-287
0,258748,-1652,685,-510,-1487,-305,-47,261,407,-287
0,258753,-1652,685,-510,-1487,-305,-47,261,407,-287
0,258758,-1652,685,-510,-1487,-305,-47,261,407,-287
0,258764,-1651,687,-514,-1495,-307,-42,261,407,-287
0,258769,-1651,687,-514,-1495,-307,-42,261,407,-287
0,258776,-1651,687,-514,-1495,-307,-42,261,407,-287
0,258782,-1651,687,-514,-1495,-307,-42,261,407,-287
0,258787,-1649,684,-512,-1488,-307,-45,261,407,-287
0,258793,-1649,684,-512,-1488,-307,-45,261,407,-287
0,258798,-1649,684,-512,-1488,-307,-45,261,407,-287
0,258804,-1650,687,-505,-1487,-308,-49,262,406,-278
0,258808,-1650,687,-505,-1487,-308,-49,262,406,-278
0,258813,-1650,687,-505,-1487,-308,-49,262,406,-278
0,258820,-1650,687,-505,-1487,-308,-49,262,406,-278
0,258825,-1646,685,-506,-1487,-308,-51,262,406,-278
0,258830,-1646,685,-506,-1487,-308,-51,262,406,-278
0,258835,-1646,685,-506,-1487,-308,-51,262,406,-278
0,258841,-1646,685,-506,-1487,-308,-51,262,406,-278
0,258846,-1650,684,-509,-1486,-301,-45,262,406,-278
0,258851,-1650,684,-509,-1486,-301,-45,262,406,-278
0,258857,-1650,684,-509,-1486,-301,-45,262,406,-278
0,258863,-1649,686,-510,-1487,-302,-45,262,406,-278
0,258868,-1649,686,-510,-1487,-302,-45,262,406,-278
0,258873,-1649,686,-510,-1487,-302,-45,262,406,-278
0,258879,-1649,686,-510,-1487,-302,-45,262,406,-278
0,258884,-1650,684,-508,-1485,-309,-41,262,406,-278
0,258890,-1650,684,-508,-1485,-309,-41,262,406,-278
0,258895,-1650,684,-508,-1485,-309,-41,262,406,-278
0,258902,-1650,684,-508,-1485,-309,-41,262,406,-278
0,258908,-1649,684,-512,-1492,-307,-44,262,406,-278
0,258913,-1649,684,-512,-1492,-307,-44,262,406,-278
0,258919,-1649,684,-512,-1492,-307,-44,262,406,-278
0,258924,-1649,684,-507,-1486,-305,-48,259,407,-283
0,258930,-1649,684,-507,-1486,-305,-48,259,407,-283
0,258935,-1649,684,-507,-1486,-305,-48,259,407,-283
0,258940,-1649,684,-507,-1486,-305,-48,259,407,-283
0,258947,-1650,687,-512,-1488,-304,-48,259,407,-283
0,258952,-1650,687,-512,-1488,-304,-48,259,407,-283
0,258958,-1650,687,-512,-1488,-304,-48,259,407,-283
0,258963,-1652,684,-510,-1497,-308,-39,259,407,-283
0,258969,-1652,684,-510,-1497,-308,-39,259,407,-283
0,258974,-1652,684,-510,-1497,-308,-39,259,407,-283
0,258979,-1652,684,-510,-1497,-308,-39,259,407,-283
0,258985,-1648,685,-508,-1494,-311,-47,259,407,-283
0,258991,-1648,685,-508,-1494,-311,-47,259,407,-283
0,258996,-1648,685,-508,-1494,-311,-47,259,407,-283
0,259002,-1648,685,-508,-1494,-311,-47,259,407,-283
0,259007,-1650,684,-517,-1487,-306,-48,259,407,-283
0,259012,-1650,684,-517,-1487,-306,-48,259,407,-283
0,259017,-1650,684,-517,-1487,-306,-48,259,407,-283
0,259023,-1649,684,-505,-1487,-308,-43,259,407,-283
0,259030,-1649,684,-505,-1487,-308,-43,259,407,-283
0,259036,-1649,684,-505,-1487,-308,-43,259,407,-283
0,259041,-1649,684,-505,-1487,-308,-43,259,407,-283
0,259047,-1649,688,-513,-1490,-306,-45,269,407,-277
0,259052,-1649,688,-513,-1490,-306,-45,269,407,-277
0,259057,-1649,688,-513,-1490,-306,-45,269,407,-277
0,259063,-1647,687,-509,-1488,-312,-43,269,407,-277
0,259068,-1647,687,-509,-1488,-312,-43,269,407,-277
0,259074,-1647,687,-509,-1488,-312,-43,269,407,-277
0,259080,-1647,687,-509,-1488,-312,-43,269,407,-277
0,259085,-1646,684,-508,-1483,-312,-43,269,407,-277
0,259091,-1646,684,-508,-1483,-312,-43,269,407,-277
0,259096,-1646,684,-508,-1483,-312,-43,269,407,-277
0,259101,-1646,684,-508,-1483,-312,-43,269,407,-277
0,259107,-1647,686,-511,-1483,-302,-44,269,407,-277
0,259112,-1647,686,-511,-1483,-302,-44,269,407,-277
0,259119,-1647,686,-511,-1483,-302,-44,269,407,-277
0,259125,-1651,684,-513,-1486,-300,-39,269,407,-277
0,259130,-1651,684,-513,-1486,-300,-39,269,407,-277
0,259135,-1651,684,-513,-1486,-300,-39,269,407,-277
0,259140,-1651,684,-513,-1486,-300,-39,269,407,-277
0,259146,-1648,684,-512,-1485,-312,-50,269,407,-277
0,259151,-1648,684,-512,-1485,-312,-50,269,407,-277
0,259156,-1648,684,-512,-1485,-312,-50,269,407,-277
0,259163,-1651,687,-509,-1484,-311,-42,264,406,-274
0,259169,-1651,687,-509,-1484,-311,-42,264,406,-274
0,259174,-1651,687,-509,-1484,-311,-42,264,406,-274
0,259179,-1651,687,-509,-1484,-311,-42,264,406,-274
0,259184,-1649,685,-507,-1484,-308,-43,264,406,-274
0,259189,-1649,685,-507,-1484,-308,-43,264,406,-274
0,259195,-1649,685,-507,-1484,-308,-43,264,406,-274
0,259201,-1649,685,-507,-1484,-308,-43,264,406,-274
0,259207,-1650,686,-506,-1492,-316,-46,264,406,-274
0,259212,-1650,686,-506,-1492,-316,-46,264,406,-274
0,259217,-1650,686,-506,-1492,-316,-46,264,406,-274
0,259223,-1651,684,-504,-1496,-308,-43,264,406,-274
0,259228,-1651,684,-504,-1496,-308,-43,264,406,-274
0,259234,-1651,684,-504,-1496,-308,-43,264,406,-274
0,259239,-1651,684,-504,-1496,-308,-43,264,406,-274
0,259245,-1653,684,-510,-1492,-312,-40,264,406,-274
0,259251,-1653,684,-510,-1492,-312,-40,264,406,-274
0,259257,-1653,684,-510,-1492,-312,-40,264,406,-274
0,259262,-1653,684,-510,-1492,-312,-40,264,406,-274
0,259267,-1652,685,-505,-1490,-309,-46,264,406,-274
0,259272,-1652,685,-505,-1490,-309,-46,264,406,-274
0,259278,-1652,685,-505,-1490,-309,-46,264,406,-274
0,259283,-1650,687,-512,-1486,-309,-46,264,406,-274
0,259290,-1650,687,-512,-1486,-309,-46,264,406,-274
0,259295,-1650,687,-512,-1486,-309,-46,264,406,-274
0,259300,-1650,687,-512,-1486,-309,-46,264,406,-274
0,259305,-1651,684,-512,-1487,-307,-45,258,400,-276
0,259311,-1651,684,-512,-1487,-307,-45,258,400,-276
0,259316,-1651,684,-512,-1487,-307,-45,258,400,-276
0,259322,-1648,685,-506,-1494,-316,-40,258,400,-276
0,259328,-1648,685,-506,-1494,-316,-40,258,400,-276
0,259334,-1648,685,-506,-1494,-316,-40,258,400,-276
0,259339,-1648,685,-506,-1494,-316,-40,258,400,-276
0,259345,-1647,688,-509,-1496,-314,-41,258,400,-276
0,259350,-1647,688,-509,-1496,-314,-41,258,400,-276
0,259355,-1647,688,-509,-1496,-314,-41,258,400,-276
0,259361,-1647,688,-509,-1496,-314,-41,258,400,-276
0,259366,-1651,686,-506,-1494,-314,-49,258,400,-276
0,259373,-1651,686,-506,-1494,-314,-49,258,400,-276
0,259378,-1651,686,-506,-1494,-314,-49,258,400,-276
0,259384,-1648,685,-508,-1493,-310,-48,258,400,-276
0,259389,-1648,685,-508,-1493,-310,-48,258,400,-276
0,259395,-1648,685,-508,-1493,-310,-48,258,400,-276
0,259399,-1648,685,-508,-1493,-310,-48,258,400,-276
0,259405,-1647,687,-509,-1490,-305,-43,258,400,-276
0,259410,-1647,687,-509,-1490,-305,-43,258,400,-276
0,259416,-1647,687,-509,-1490,-305,-43,258,400,-276
0,259422,-1647,687,-509,-1490,-305,-43,258,400,-276
0,259427,-1649,685,-509,-1493,-309,-51,256,412,-282
0,259432,-1649,685,-509,-1493,-309,-51,256,412,-282
0,259438,-1649,685,-509,-1493,-309,-51,256,412,-282
0,259444,-1652,686,-506,-1494,-310,-49,256,412,-282
0,259449,-1652,686,-506,-1494,-310,-49,256,412,-282
0,259456,-1652,686,-506,-1494,-310,-49,256,412,-282
0,259461,-1652,686,-506,-1494,-310,-49,256,412,-282
0,259467,-1647,684,-508,-1492,-310,-41,256,412,-282
0,259472,-1647,684,-508,-1492,-310,-41,256,412,-282
0,259478,-1647,684,-508,-1492,-310,-41,256,412,-282
0,259483,-1651,684,-510,-1487,-308,-42,256,412,-282
0,259489,-1651,684,-510,-1487,-308,-42,256,412,-282
0,259495,-1651,684,-510,-1487,-308,-42,256,412,-282
0,259501,-1651,684,-510,-1487,-308,-42,256,412,-282
0,259507,-1649,685,-508,-1490,-314,-40,256,412,-282
0,259512,-1649,685,-508,-1490,-314,-40,256,412,-282
0,259518,-1649,685,-508,-1490,-314,-40,256,412,-282
0,259523,-1650,684,-507,-1487,-309,-43,256,412,-282
0,259528,-1650,684,-507,-1487,-309,-43,256,412,-282
0,259533,-1650,684,-507,-1487,-309,-43,256,412,-282
0,259538,-1650,684,-507,-1487,-309,-43,256,412,-282
0,259544,-1647,687,-504,-1493,-302,-41,260,402,-284
0,259550,-1647,687,-504,-1493,-302,-41,260,402,-284
0,259555,-1647,687,-504,-1493,-302,-41,260,402,-284
0,259561,-1647,687,-504,-1493,-302,-41,260,402,-284
0,259566,-1649,684,-511,-1495,-306,-36,260,402,-284
0,259571,-1649,684,-511,-1495,-306,-36,260,402,-284
0,259576,-1649,684,-511,-1495,-306,-36,260,402,-284
0,259582,-1649,685,-507,-1496,-313,-41,260,402,-284
0,259588,-1649,685,-507,-1496,-313,-41,260,402,-284
0,259593,-1649,685,-507,-1496,-313,-41,260,402,-284
0,259599,-1649,685,-507,-1496,-313,-41,260,402,-284
0,259604,-1648,685,-507,-1491,-308,-42,260,402,-284
0,259610,-1648,685,-507,-1491,-308,-42,260,402,-284
0,259615,-1648,685,-507,-1491,-308,-42,260,402,-284
0,259620,-1648,685,-507,-1491,-308,-42,260,402,-284
0,259625,-1650,688,-510,-1486,-309,-47,260,402,-284
0,259632,-1650,688,-510,-1486,-309,-47,260,402,-284
0,259638,-1650,688,-510,-1486,-309,-47,260,402,-284
0,259643,-1650,685,-510,-1487,-310,-48,260,402,-284
0,259648,-1650,685,-510,-1487,-310,-48,260,402,-284
0,259654,-1650,685,-510,-1487,-310,-48,260,402,-284
0,259659,-1650,685,-510,-1487,-310,-48,260,402,-284
0,259664,-1650,683,-502,-1491,-308,-44,260,398,-282
0,259671,-1650,683,-502,-1491,-308,-44,260,398,-282
0,259676,-1650,683,-502,-1491,-308,-44,260,398,-282
0,259682,-1650,683,-502,-1491,-308,-44,260,398,-282
0,259687,-1649,687,-511,-1497,-312,-44,260,398,-282
0,259693,-1649,687,-511,-1497,-312,-44,260,398,-282
0,259699,-1649,687,-511,-1497,-312,-44,260,398,-282
0,259704,-1650,687,-511,-1491,-309,-40,260,398,-282
0,259710,-1650,687,-511,-1491,-309,-40,260,398,-282
0,259716,-1650,687,-511,-1491,-309,-40,260,398,-282
0,259722,-1650,687,-511,-1491,-309,-40,260,398,-282
0,259727,-1650,685,-514,-1489,-306,-37,260,398,-282
0,259732,-1650,685,-514,-1489,-306,-37,260,398,-282
0,259737,-1650,685,-514,-1489,-306,-37,260,398,-282
0,259742,-1652,686,-510,-1484,-303,-41,260,398,-282
0,259748,-1652,686,-510,-1484,-303,-41,260,398,-282
0,259753,-1652,686,-510,-1484,-303,-41,260,398,-282
0,259759,-1652,686,-510,-1484,-303,-41,260,398,-282
0,259764,-1645,686,-509,-1489,-304,-39,260,398,-282
0,259770,-1645,686,-509,-1489,-304,-39,260,398,-282
0,259775,-1645,686,-509,-1489,-304,-39,260,398,-282
0,259781,-1645,686,-509,-1489,-304,-39,260,398,-282
0,259786,-1650,684,-511,-1491,-310,-41,260,404,-274
0,259791,-1650,684,-511,-1491,-310,-41,260,404,-274
0,259796,-1650,684,-511,-1491,-310,-41,260,404,-274
0,259802,-1650,684,-511,-1491,-310,-41,260,404,-274
0,259807,-1650,686,-506,-1492,-305,-41,260,404,-274
0,259813,-1650,686,-506,-1492,-305,-41,260,404,-274
0,259818,-1650,686,-506,-1492,-305,-41,260,404,-274
0,259824,-1651,685,-509,-1494,-310,-44,260,404,-274
0,259829,-1651,685,-509,-1494,-310,-44,260,404,-274
0,259834,-1651,685,-509,-1494,-310,-44,260,404,-274
0,259841,-1651,685,-509,-1494,-310,-44,260,404,-274
0,259846,-1651,685,-512,-1489,-310,-50,260,404,-274
0,259851,-1651,685,-512,-1489,-310,-50,260,404,-274
0,259856,-1651,685,-512,-1489,-310,-50,260,404,-274
0,259862,-1651,685,-512,-1489,-310,-50,260,404,-274
0,259868,-1650,683,-511,-1483,-309,-46,260,404,-274
0,259873,-1650,683,-511,-1483,-309,-46,260,404,-274
0,259877,-1650,683,-511,-1483,-309,-46,260,404,-274
0,259884,-1648,686,-508,-1488,-308,-41,260,404,-274
0,259889,-1648,686,-508,-1488,-308,-41,260,404,-274
0,259895,-1648,686,-508,-1488,-308,-41,260,404,-274
0,259901,-1648,686,-508,-1488,-308,-41,260,404,-274
0,259908,-1649,684,-511,-1492,-310,-43,260,404,-274
0,259914,-1649,684,-511,-1492,-310,-43,260,404,-274
0,259919,-1649,684,-511,-1492,-310,-43,260,404,-274
0,259926,-1651,684,-504,-1488,-314,-41,263,409,-277
0,259932,-1651,684,-504,-1488,-314,-41,263,409,-277
0,259937,-1651,684,-504,-1488,-314,-41,263,409,-277
0,259942,-1651,684,-504,-1488,-314,-41,263,409,-277
0,259948,-1653,686,-508,-1489,-311,-47,263,409,-277
0,259953,-1653,686,-508,-1489,-311,-47,263,409,-277
0,259959,-1653,686,-508,-1489,-311,-47,263,409,-277
0,259964,-1649,683,-506,-1494,-311,-52,263,409,-277
0,259971,-1649,683,-506,-1494,-311,-52,263,409,-277
0,259976,-1649,683,-506,-1494,-311,-52,263,409,-277
0,259981,-1649,683,-506,-1494,-311,-52,263,409,-277
0,259987,-1650,691,-512,-1485,-308,-47,263,409,-277
0,259992,-1650,691,-512,-1485,-308,-47,263,409,-277
0,259998,-1650,691,-512,-1485,-308,-47,263,409,-277
0,260003,-1649,685,-511,-1490,-314,-48,263,409,-277
0,260009,-1649,685,-511,-1490,-314,-48,263,409,-277
0,260015,-1649,685,-511,-1490,-314,-48,263,409,-277
0,260020,-1649,685,-511,-1490,-314,-48,263,409,-277
0,260026,-1648,684,-509,-1493,-308,-39,263,409,-277
0,260031,-1648,684,-509,-1493,-308,-39,263,409,-277
0,260036,-1648,684,-509,-1493,-308,-39,263,409,-277
0,260042,-1648,684,-509,-1493,-308,-39,263,409,-277
0,260047,-1648,684,-503,-1488,-307,-45,264,400,-286
0,260054,-1648,684,-503,-1488,-307,-45,264,400,-286
0,260059,-1648,684,-503,-1488,-307,-45,264,400,-286
0,260064,-1653,684,-506,-1488,-307,-45,264,400,-286
0,260069,-1653,684,-506,-1488,-307,-45,264,400,-286
0,260075,-1653,684,-506,-1488,-307,-45,264,400,-286
0,260081,-1653,684,-506,-1488,-307,-45,264,400,-286
0,260086,-1650,684,-514,-1492,-294,-46,264,400,-286
0,260091,-1650,684,-514,-1492,-294,-46,264,400,-286
0,260098,-1650,684,-514,-1492,-294,-46,264,400,-286
0,260103,-1651,686,-512,-1489,-311,-46,264,400,-286
0,260108,-1651,686,-512,-1489,-311,-46,264,400,-286
0,260113,-1651,686,-512,-1489,-311,-46,264,400,-286
0,260118,-1651,686,-512,-1489,-311,-46,264,400,-286
0,260123,-1649,683,-509,-1489,-314,-40,264,400,-286
0,260128,-1649,683,-509,-1489,-314,-40,264,400,-286
0,260134,-1649,683,-509,-1489,-314,-40,264,400,-286
0,260140,-1649,683,-509,-1489,-314,-40,264,400,-286
0,260145,-1651,684,-508,-1492,-308,-43,264,400,-286
0,260151,-1651,684,-508,-1492,-308,-43,264,400,-286
0,260156,-1651,684,-508,-1492,-308,-43,264,400,-286
0,260161,-1651,684,-508,-1492,-308,-43,264,400,-286
0,260167,-1649,684,-507,-1490,-306,-45,258,408,-278
0,260172,-1649,684,-507,-1490,-306,-45,258,408,-278
0,260177,-1649,684,-507,-1490,-306,-45,258,408,-278
0,260183,-1649,683,-510,-1486,-314,-48,258,408,-278
0,260189,-1649,683,-510,-1486,-314,-48,258,408,-278
0,260194,-1649,683,-510,-1486,-314,-48,258,408,-278
0,260199,-1649,683,-510,-1486,-314,-48,258,408,-278
0,260205,-1649,688,-507,-1484,-304,-48,258,408,-278
0,260210,-1649,688,-507,-1484,-304,-48,258,408,-278
0,260215,-1649,688,-507,-1484,-304,-48,258,408,-278
0,260221,-1649,688,-507,-1484,-304,-48,258,408,-278
0,260227,-1651,685,-507,-1489,-306,-50,258,408,-278
0,260233,-1651,685,-507,-1489,-306,-50,258,408,-278
0,260238,-1651,685,-507,-1489,-306,-50,258,408,-278
0,260243,-1651,683,-510,-1493,-308,-49,258,408,-278
0,260248,-1651,683,-510,-1493,-308,-49,258,408,-278
0,260254,-1651,683,-510,-1493,-308,-49,258,408,-278
0,260259,-1651,683,-510,-1493,-308,-49,258,408,-278
0,260264,-1648,686,-510,-1492,-308,-41,258,408,-278
0,260271,-1648,686,-510,-1492,-308,-41,258,408,-278
