imu,time,ax,ay,az,gx,gy,gz,mx,my,mz
1,199628,-3498,2429,-609,-137,-229,-97,-155,209,-205
1,199636,-3498,2429,-609,-137,-229,-97,-155,209,-205
1,199644,-3495,2428,-605,-127,-221,-96,-155,209,-205
1,199652,-3495,2428,-605,-127,-221,-96,-155,209,-205
1,199660,-3495,2428,-606,-131,-223,-97,-155,209,-205
1,199667,-3495,2428,-606,-131,-223,-97,-155,209,-205
1,199673,-3495,2428,-606,-131,-223,-97,-155,209,-205
1,199680,-3497,2429,-604,-131,-220,-95,-154,208,-206
1,199686,-3497,2429,-604,-131,-220,-95,-154,208,-206
1,199693,-3497,2429,-604,-131,-220,-95,-154,208,-206
1,199699,-3496,2426,-607,-136,-223,-106,-154,208,-206
1,199704,-3496,2426,-607,-136,-223,-106,-154,208,-206
1,199710,-3496,2426,-607,-136,-223,-106,-154,208,-206
1,199716,-3496,2426,-607,-136,-223,-106,-154,208,-206
1,199724,-3497,2428,-608,-133,-212,-96,-154,208,-206
1,199729,-3497,2428,-608,-133,-212,-96,-154,208,-206
1,199735,-3497,2428,-608,-133,-212,-96,-154,208,-206
1,199741,-3495,2428,-601,-128,-219,-97,-154,208,-206
1,199746,-3495,2428,-601,-128,-219,-97,-154,208,-206
1,199751,-3495,2428,-601,-128,-219,-97,-154,208,-206
1,199757,-3496,2427,-607,-132,-224,-96,-154,208,-206
1,199762,-3496,2427,-607,-132,-224,-96,-154,208,-206
1,199769,-3496,2427,-607,-132,-224,-96,-154,208,-206
1,199774,-3496,2427,-607,-132,-224,-96,-154,208,-206
1,199780,-3496,2426,-611,-135,-215,-89,-154,208,-206
1,199785,-3496,2426,-611,-135,-215,-89,-154,208,-206
1,199791,-3496,2426,-611,-135,-215,-89,-154,208,-206
1,199797,-3497,2425,-607,-129,-217,-100,-163,209,-205
1,199802,-3497,2425,-607,-129,-217,-100,-163,209,-205
1,199808,-3497,2425,-607,-129,-217,-100,-163,209,-205
1,199814,-3497,2425,-607,-129,-217,-100,-163,209,-205
1,199819,-3500,2425,-611,-132,-222,-91,-163,209,-205
1,199824,-3500,2425,-611,-132,-222,-91,-163,209,-205
1,199829,-3500,2425,-611,-132,-222,-91,-163,209,-205
1,199834,-3500,2425,-611,-132,-222,-91,-163,209,-205
1,199840,-3496,2427,-606,-134,-220,-89,-163,209,-205
1,199845,-3496,2427,-606,-134,-220,-89,-163,209,-205
1,199851,-3496,2427,-606,-134,-220,-89,-163,209,-205
1,199857,-3493,2428,-609,-130,-216,-88,-163,209,-205
1,199862,-3493,2428,-609,-130,-216,-88,-163,209,-205
1,199868,-3493,2428,-609,-130,-216,-88,-163,209,-205
1,199873,-3493,2428,-609,-130,-216,-88,-163,209,-205
1,199878,-3495,2427,-611,-130,-225,-90,-163,209,-205
1,199884,-3495,2427,-611,-130,-225,-90,-163,209,-205
1,199889,-3495,2427,-611,-130,-225,-90,-163,209,-205
1,199895,-3495,2427,-611,-130,-225,-90,-163,209,-205
1,199901,-3496,2427,-612,-134,-223,-96,-163,209,-205
1,199906,-3496,2427,-612,-134,-223,-96,-163,209,-205
1,199912,-3496,2427,-612,-134,-223,-96,-163,209,-205
1,199917,-3494,2430,-606,-134,-228,-97,-152,208,-200
1,199923,-3494,2430,-606,-134,-228,-97,-152,208,-200
1,199929,-3494,2430,-606,-134,-228,-97,-152,208,-200
1,199934,-3494,2430,-606,-134,-228,-97,-152,208,-200
1,199941,-3497,2430,-607,-137,-225,-97,-152,208,-200
1,199945,-3497,2430,-607,-137,-225,-97,-152,208,-200
1,199951,-3497,2430,-607,-137,-225,-97,-152,208,-200
1,199956,-3497,2430,-607,-137,-225,-97,-152,208,-200
1,199962,-3495,2426,-607,-132,-220,-95,-152,208,-200
1,199967,-3495,2426,-607,-132,-220,-95,-152,208,-200
1,199973,-3495,2426,-607,-132,-220,-95,-152,208,-200
1,199979,-3494,2428,-610,-138,-227,-92,-152,208,-200
1,199985,-3494,2428,-610,-138,-227,-92,-152,208,-200
1,199990,-3494,2428,-610,-138,-227,-92,-152,208,-200
1,199996,-3494,2428,-610,-138,-227,-92,-152,208,-200
1,200001,-3496,2424,-608,-138,-214,-97,-152,208,-200
1,200007,-3496,2424,-608,-138,-214,-97,-152,208,-200
1,200012,-3496,2424,-608,-138,-214,-97,-152,208,-200
1,200018,-3498,2427,-610,-130,-217,-98,-152,208,-200
1,200024,-3498,2427,-610,-130,-217,-98,-152,208,-200
1,200030,-3498,2427,-610,-130,-217,-98,-152,208,-200
1,200035,-3498,2427,-610,-130,-217,-98,-152,208,-200
1,200040,-3497,2425,-604,-130,-226,-87,-148,208,-206
1,200046,-3497,2425,-604,-130,-226,-87,-148,208,-206
1,200052,-3497,2425,-604,-130,-226,-87,-148,208,-206
1,200057,-3497,2426,-605,-135,-225,-93,-148,208,-206
1,200062,-3497,2426,-605,-135,-225,-93,-148,208,-206
1,200068,-3497,2426,-605,-135,-225,-93,-148,208,-206
1,200073,-3497,2426,-605,-135,-225,-93,-148,208,-206
1,200079,-3495,2426,-607,-137,-224,-94,-148,208,-206
1,200084,-3495,2426,-607,-137,-224,-94,-148,208,-206
1,200089,-3495,2426,-607,-137,-224,-94,-148,208,-206
1,200095,-3495,2426,-607,-137,-224,-94,-148,208,-206
1,200100,-3496,2426,-606,-130,-225,-97,-148,208,-206
1,200105,-3496,2426,-606,-130,-225,-97,-148,208,-206
1,200112,-3496,2426,-606,-130,-225,-97,-148,208,-206
1,200117,-3496,2426,-606,-130,-225,-97,-148,208,-206
1,200122,-3497,2428,-606,-136,-216,-101,-148,208,-206
1,200127,-3497,2428,-606,-136,-216,-101,-148,208,-206
1,200133,-3497,2428,-606,-136,-216,-101,-148,208,-206
1,200138,-3495,2428,-610,-134,-211,-100,-148,208,-206
1,200143,-3495,2428,-610,-134,-211,-100,-148,208,-206
1,200150,-3495,2428,-610,-134,-211,-100,-148,208,-206
1,200155,-3495,2428,-610,-134,-211,-100,-148,208,-206
1,200161,-3497,2427,-608,-126,-218,-95,-152,206,-206
1,200167,-3497,2427,-608,-126,-218,-95,-152,206,-206
1,200172,-3497,2427,-608,-126,-218,-95,-152,206,-206
1,200177,-3497,2429,-604,-131,-214,-107,-152,206,-206
1,200182,-3497,2429,-604,-131,-214,-107,-152,206,-206
1,200188,-3497,2429,-604,-131,-214,-107,-152,206,-206
1,200194,-3497,2429,-604,-131,-214,-107,-152,206,-206
1,200199,-3493,2428,-609,-133,-221,-97,-152,206,-206
1,200205,-3493,2428,-609,-133,-221,-97,-152,206,-206
1,200211,-3493,2428,-609,-133,-221,-97,-152,206,-206
1,200216,-3493,2428,-609,-133,-221,-97,-152,206,-206
1,200221,-3495,2426,-602,-132,-224,-97,-152,206,-206
1,200226,-3495,2426,-602,-132,-224,-97,-152,206,-206
1,200232,-3495,2426,-602,-132,-224,-97,-152,206,-206
1,200238,-3496,2427,-608,-132,-219,-87,-152,206,-206
1,200243,-3496,2427,-608,-132,-219,-87,-152,206,-206
1,200249,-3496,2427,-608,-132,-219,-87,-152,206,-206
1,200255,-3496,2427,-608,-132,-219,-87,-152,206,-206
1,200260,-3497,2423,-611,-133,-217,-92,-152,206,-206
1,200266,-3497,2423,-611,-133,-217,-92,-152,206,-206
1,200271,-3497,2423,-611,-133,-217,-92,-152,206,-206
1,200276,-3497,2423,-611,-133,-217,-92,-152,206,-206
1,200282,-3494,2426,-612,-130,-225,-93,-152,206,-206
1,200287,-3494,2426,-612,-130,-225,-93,-152,206,-206
1,200292,-3494,2426,-612,-130,-225,-93,-152,206,-206
1,200296,-3494,2426,-612,-130,-225,-93,-152,206,-206
1,200301,-3493,2428,-605,-130,-219,-96,-152,206,-206
1,200306,-3493,2428,-605,-130,-219,-96,-152,206,-206
1,200311,-3493,2428,-605,-130,-219,-96,-152,206,-206
1,200317,-3495,2428,-608,-129,-222,-97,-152,206,-206
1,200323,-3495,2428,-608,-129,-222,-97,-152,206,-206
1,200328,-3495,2428,-608,-129,-222,-97,-152,206,-206
1,200333,-3495,2428,-608,-129,-222,-97,-152,206,-206
1,200339,-3497,2422,-609,-124,-222,-102,-152,206,-206
1,200344,-3497,2422,-609,-124,-222,-102,-152,206,-206
1,200349,-3497,2422,-609,-124,-222,-102,-152,206,-206
1,200355,-3497,2422,-609,-124,-222,-102,-152,206,-206
1,200360,-3496,2428,-610,-134,-224,-105,-152,206,-206
1,200366,-3496,2428,-610,-134,-224,-105,-152,206,-206
1,200372,-3496,2428,-610,-134,-224,-105,-152,206,-206
1,200377,-3496,2428,-610,-134,-224,-105,-152,206,-206
1,200382,-3495,2428,-611,-131,-229,-101,-152,206,-206
1,200388,-3495,2428,-611,-131,-229,-101,-152,206,-206
1,200393,-3495,2428,-611,-131,-229,-101,-152,206,-206
1,200398,-3495,2426,-611,-129,-223,-97,-152,206,-206
1,200403,-3495,2426,-611,-129,-223,-97,-152,206,-206
1,200409,-3495,2426,-611,-129,-223,-97,-152,206,-206
1,200415,-3495,2426,-611,-129,-223,-97,-152,206,-206
1,200420,-3492,2427,-607,-133,-228,-96,-151,207,-207
1,200425,-3492,2427,-607,-133,-228,-96,-151,207,-207
1,200430,-3492,2427,-607,-133,-228,-96,-151,207,-207
1,200436,-3492,2427,-607,-133,-228,-96,-151,207,-207
1,200441,-3497,2429,-608,-130,-222,-96,-151,207,-207
1,200446,-3497,2429,-608,-130,-222,-96,-151,207,-207
1,200452,-3497,2429,-608,-130,-222,-96,-151,207,-207
1,200458,-3496,2427,-599,-126,-225,-100,-151,207,-207
1,200463,-3496,2427,-599,-126,-225,-100,-151,207,-207
1,200468,-3496,2427,-599,-126,-225,-100,-151,207,-207
1,200473,-3496,2427,-599,-126,-225,-100,-151,207,-207
1,200479,-3498,2430,-607,-123,-223,-101,-151,207,-207
1,200484,-3498,2430,-607,-123,-223,-101,-151,207,-207
1,200489,-3498,2430,-607,-123,-223,-101,-151,207,-207
1,200496,-3498,2430,-607,-123,-223,-101,-151,207,-207
1,200501,-3495,2427,-608,-134,-227,-92,-151,207,-207
1,200506,-3495,2427,-608,-134,-227,-92,-151,207,-207
1,200511,-3495,2427,-608,-134,-227,-92,-151,207,-207
1,200517,-3495,2427,-608,-134,-227,-92,-151,207,-207
1,200522,-3495,2427,-614,-131,-224,-94,-151,207,-207
1,200528,-3495,2427,-614,-131,-224,-94,-151,207,-207
1,200534,-3495,2427,-614,-131,-224,-94,-151,207,-207
1,200540,-3495,2427,-610,-133,-223,-98,-160,208,-206
1,200546,-3495,2427,-610,-133,-223,-98,-160,208,-206
1,200551,-3495,2427,-610,-133,-223,-98,-160,208,-206
1,200557,-3495,2427,-610,-133,-223,-98,-160,208,-206
1,200562,-3496,2426,-608,-135,-224,-96,-160,208,-206
1,200568,-3496,2426,-608,-135,-224,-96,-160,208,-206
1,200573,-3496,2426,-608,-135,-224,-96,-160,208,-206
1,200579,-3496,2428,-610,-131,-222,-100,-160,208,-206
1,200584,-3496,2428,-610,-131,-222,-100,-160,208,-206
1,200589,-3496,2428,-610,-131,-222,-100,-160,208,-206
1,200594,-3496,2428,-610,-131,-222,-100,-160,208,-206
1,200599,-3498,2427,-608,-137,-224,-103,-160,208,-206
1,200604,-3498,2427,-608,-137,-224,-103,-160,208,-206
1,200610,-3498,2427,-608,-137,-224,-103,-160,208,-206
1,200615,-3498,2427,-608,-137,-224,-103,-160,208,-206
1,200621,-3494,2427,-610,-133,-225,-102,-160,208,-206
1,200626,-3494,2427,-610,-133,-225,-102,-160,208,-206
1,200632,-3494,2427,-610,-133,-225,-102,-160,208,-206
1,200637,-3494,2427,-610,-133,-225,-102,-160,208,-206
1,200643,-3496,2427,-611,-128,-218,-94,-160,208,-206
1,200648,-3496,2427,-611,-128,-218,-94,-160,208,-206
1,200654,-3496,2427,-611,-128,-218,-94,-160,208,-206
1,200659,-3494,2425,-604,-133,-217,-93,-155,215,-207
1,200665,-3494,2425,-604,-133,-217,-93,-155,215,-207
1,200672,-3494,2425,-604,-133,-217,-93,-155,215,-207
1,200677,-3494,2425,-604,-133,-217,-93,-155,215,-207
1,200682,-3496,2426,-604,-140,-227,-99,-155,215,-207
1,200688,-3496,2426,-604,-140,-227,-99,-155,215,-207
1,200693,-3496,2426,-604,-140,-227,-99,-155,215,-207
1,200699,-3495,2426,-610,-134,-220,-95,-155,215,-207
1,200705,-3495,2426,-610,-134,-220,-95,-155,215,-207
1,200710,-3495,2426,-610,-134,-220,-95,-155,215,-207
1,200716,-3495,2426,-610,-134,-220,-95,-155,215,-207
1,200720,-3498,2427,-607,-128,-223,-94,-155,215,-207
1,200726,-3498,2427,-607,-128,-223,-94,-155,215,-207
1,200731,-3498,2427,-607,-128,-223,-94,-155,215,-207
1,200737,-3498,2427,-607,-128,-223,-94,-155,215,-207
1,200742,-3499,2426,-615,-131,-224,-90,-155,215,-207
1,200748,-3499,2426,-615,-131,-224,-90,-155,215,-207
1,200753,-3499,2426,-615,-131,-224,-90,-155,215,-207
1,200759,-3496,2426,-612,-135,-225,-93,-155,215,-207
1,200764,-3496,2426,-612,-135,-225,-93,-155,215,-207
1,200770,-3496,2426,-612,-135,-225,-93,-155,215,-207
1,200775,-3496,2426,-612,-135,-225,-93,-155,215,-207
1,200781,-3495,2428,-605,-135,-223,-93,-151,207,-203
1,200785,-3495,2428,-605,-135,-223,-93,-151,207,-203
1,200792,-3495,2428,-605,-135,-223,-93,-151,207,-203
1,200797,-3495,2428,-605,-135,-223,-93,-151,207,-203
1,200803,-3496,2428,-606,-132,-224,-98,-151,207,-203
1,200808,-3496,2428,-606,-132,-224,-98,-151,207,-203
1,200815,-3496,2428,-606,-132,-224,-98,-151,207,-203
1,200820,-3492,2425,-605,-131,-225,-95,-151,207,-203
1,200825,-3492,2425,-605,-131,-225,-95,-151,207,-203
1,200832,-3492,2425,-605,-131,-225,-95,-151,207,-203
1,200837,-3492,2425,-605,-131,-225,-95,-151,207,-203
1,200843,-3496,2427,-607,-133,-221,-91,-151,207,-203
1,200848,-3496,2427,-607,-133,-221,-91,-151,207,-203
1,200853,-3496,2427,-607,-133,-221,-91,-151,207,-203
1,200859,-3498,2425,-611,-133,-228,-93,-151,207,-203
1,200864,-3498,2425,-611,-133,-228,-93,-151,207,-203
1,200869,-3498,2425,-611,-133,-228,-93,-151,207,-203
1,200876,-3498,2425,-611,-133,-228,-93,-151,207,-203
1,200881,-3495,2428,-612,-126,-228,-99,-151,207,-203
1,200887,-3495,2428,-612,-126,-228,-99,-151,207,-203
1,200892,-3495,2428,-612,-126,-228,-99,-151,207,-203
1,200897,-3495,2428,-612,-126,-228,-99,-151,207,-203
1,200903,-3496,2427,-609,-131,-225,-102,-154,206,-210
1,200908,-3496,2427,-609,-131,-225,-102,-154,206,-210
1,200914,-3496,2427,-609,-131,-225,-102,-154,206,-210
1,200920,-3495,2430,-607,-141,-220,-95,-154,206,-210
1,200926,-3495,2430,-607,-141,-220,-95,-154,206,-210
1,200931,-3495,2430,-607,-141,-220,-95,-154,206,-210
1,200936,-3495,2430,-607,-141,-220,-95,-154,206,-210
1,200941,-3497,2426,-608,-132,-220,-95,-154,206,-210
1,200946,-3497,2426,-608,-132,-220,-95,-154,206,-210
1,200952,-3497,2426,-608,-132,-220,-95,-154,206,-210
1,200958,-3494,2425,-606,-129,-223,-92,-154,206,-210
1,200964,-3494,2425,-606,-129,-223,-92,-154,206,-210
1,200970,-3494,2425,-606,-129,-223,-92,-154,206,-210
1,200975,-3494,2425,-606,-129,-223,-92,-154,206,-210
1,200980,-3499,2427,-608,-131,-223,-95,-154,206,-210
1,200985,-3499,2427,-608,-131,-223,-95,-154,206,-210
1,200990,-3499,2427,-608,-131,-223,-95,-154,206,-210
1,200996,-3499,2427,-608,-131,-223,-95,-154,206,-210
1,201001,-3497,2430,-610,-141,-227,-97,-154,206,-210
1,201007,-3497,2430,-610,-141,-227,-97,-154,206,-210
1,201012,-3497,2430,-610,-141,-227,-97,-154,206,-210
1,201018,-3497,2430,-610,-141,-227,-97,-154,206,-210
1,201023,-3492,2427,-612,-132,-227,-92,-154,206,-210
1,201029,-3492,2427,-612,-132,-227,-92,-154,206,-210
1,201034,-3492,2427,-612,-132,-227,-92,-154,206,-210
1,201039,-3493,2425,-606,-134,-226,-96,-160,204,-208
1,201044,-3493,2425,-606,-134,-226,-96,-160,204,-208
1,201051,-3493,2425,-606,-134,-226,-96,-160,204,-208
1,201056,-3493,2425,-606,-134,-226,-96,-160,204,-208
1,201061,-3494,2427,-609,-138,-230,-95,-160,204,-208
1,201066,-3494,2427,-609,-138,-230,-95,-160,204,-208
1,201072,-3494,2427,-609,-138,-230,-95,-160,204,-208
1,201078,-3500,2428,-612,-138,-224,-87,-160,204,-208
1,201083,-3500,2428,-612,-138,-224,-87,-160,204,-208
1,201089,-3500,2428,-612,-138,-224,-87,-160,204,-208
1,201095,-3500,2428,-612,-138,-224,-87,-160,204,-208
1,201100,-3495,2425,-609,-136,-223,-91,-160,204,-208
1,201105,-3495,2425,-609,-136,-223,-91,-160,204,-208
1,201110,-3495,2425,-609,-136,-223,-91,-160,204,-208
1,201116,-3495,2425,-609,-136,-223,-91,-160,204,-208
1,201122,-3495,2427,-615,-135,-227,-92,-160,204,-208
1,201127,-3495,2427,-615,-135,-227,-92,-160,204,-208
1,201133,-3495,2427,-615,-135,-227,-92,-160,204,-208
1,201138,-3495,2423,-610,-134,-217,-96,-160,204,-208
1,201143,-3495,2423,-610,-134,-217,-96,-160,204,-208
1,201149,-3495,2423,-610,-134,-217,-96,-160,204,-208
1,201154,-3495,2423,-610,-134,-217,-96,-160,204,-208
1,201159,-3496,2428,-610,-131,-220,-97,-148,212,-206
1,201165,-3496,2428,-610,-131,-220,-97,-148,212,-206
1,201171,-3496,2428,-610,-131,-220,-97,-148,212,-206
1,201177,-3496,2428,-610,-131,-220,-97,-148,212,-206
1,201183,-3498,2427,-612,-134,-223,-94,-148,212,-206
1,201188,-3498,2427,-612,-134,-223,-94,-148,212,-206
1,201194,-3498,2427,-612,-134,-223,-94,-148,212,-206
1,201199,-3496,2426,-609,-131,-227,-91,-148,212,-206
1,201205,-3496,2426,-609,-131,-227,-91,-148,212,-206
1,201211,-3496,2426,-609,-131,-227,-91,-148,212,-206
1,201217,-3496,2426,-609,-131,-227,-91,-148,212,-206
1,201222,-3493,2431,-612,-132,-217,-96,-148,212,-206
1,201227,-3493,2431,-612,-132,-217,-96,-148,212,-206
1,201233,-3493,2431,-612,-132,-217,-96,-148,212,-206
1,201238,-3493,2428,-609,-132,-223,-95,-148,212,-206
1,201244,-3493,2428,-609,-132,-223,-95,-148,212,-206
1,201249,-3493,2428,-609,-132,-223,-95,-148,212,-206
1,201255,-3493,2428,-609,-132,-223,-95,-148,212,-206
1,201262,-3493,2427,-608,-128,-227,-97,-148,212,-206
1,201267,-3493,2427,-608,-128,-227,-97,-148,212,-206
1,201273,-3493,2427,-608,-128,-227,-97,-148,212,-206
1,201278,-3495,2427,-605,-130,-226,-93,-148,212,-206
1,201284,-3495,2427,-605,-130,-226,-93,-152,206,-208
1,201289,-3495,2427,-605,-130,-226,-93,-152,206,-208
1,201294,-3495,2427,-605,-130,-226,-93,-152,206,-208
1,201299,-3496,2426,-605,-130,-221,-97,-152,206,-208
1,201306,-3496,2426,-605,-130,-221,-97,-152,206,-208
1,201311,-3496,2426,-605,-130,-221,-97,-152,206,-208
1,201317,-3496,2426,-605,-130,-221,-97,-152,206,-208
1,201322,-3493,2431,-610,-126,-221,-93,-152,206,-208
1,201327,-3493,2431,-610,-126,-221,-93,-152,206,-208
1,201333,-3493,2431,-610,-126,-221,-93,-152,206,-208
1,201338,-3497,2429,-611,-135,-224,-96,-152,206,-208
1,201344,-3497,2429,-611,-135,-224,-96,-152,206,-208
1,201349,-3497,2429,-611,-135,-224,-96,-152,206,-208
1,201355,-3497,2429,-611,-135,-224,-96,-152,206,-208
1,201360,-3496,2428,-606,-131,-221,-97,-152,206,-208
1,201366,-3496,2428,-606,-131,-221,-97,-152,206,-208
1,201371,-3496,2428,-606,-131,-221,-97,-152,206,-208
1,201376,-3496,2428,-606,-131,-221,-97,-152,206,-208
1,201382,-3494,2428,-612,-141,-225,-100,-152,206,-208
1,201388,-3494,2428,-612,-141,-225,-100,-152,206,-208
1,201394,-3494,2428,-612,-141,-225,-100,-152,206,-208
1,201399,-3493,2429,-605,-133,-227,-102,-146,214,-206
1,201405,-3493,2429,-605,-133,-227,-102,-146,214,-206
1,201410,-3493,2429,-605,-133,-227,-102,-146,214,-206
1,201416,-3493,2429,-605,-133,-227,-102,-146,214,-206
1,201421,-3494,2429,-606,-129,-227,-99,-146,214,-206
1,201426,-3494,2429,-606,-129,-227,-99,-146,214,-206
1,201433,-3494,2429,-606,-129,-227,-99,-146,214,-206
1,201438,-3494,2429,-606,-129,-227,-99,-146,214,-206
1,201444,-3495,2425,-607,-126,-229,-99,-146,214,-206
1,201449,-3495,2425,-607,-126,-229,-99,-146,214,-206
1,201455,-3495,2425,-607,-126,-229,-99,-146,214,-206
1,201460,-3493,2428,-604,-132,-227,-96,-146,214,-206
1,201465,-3493,2428,-604,-132,-227,-96,-146,214,-206
1,201470,-3493,2428,-604,-132,-227,-96,-146,214,-206
1,201477,-3493,2428,-604,-132,-227,-96,-146,214,-206
1,201482,-3494,2425,-608,-131,-228,-93,-146,214,-206
1,201488,-3494,2425,-608,-131,-228,-93,-146,214,-206
1,201493,-3494,2425,-608,-131,-228,-93,-146,214,-206
1,201499,-3496,2426,-610,-136,-224,-96,-146,214,-206
1,201504,-3496,2426,-610,-136,-224,-96,-146,214,-206
1,201509,-3496,2426,-610,-136,-224,-96,-146,214,-206
1,201515,-3496,2426,-610,-136,-224,-96,-146,214,-206
1,201521,-3497,2428,-611,-133,-224,-95,-148,210,-196
1,201526,-3497,2428,-611,-133,-224,-95,-148,210,-196
1,201532,-3497,2428,-611,-133,-224,-95,-148,210,-196
1,201537,-3497,2428,-611,-133,-224,-95,-148,210,-196
1,201543,-3498,2426,-611,-131,-226,-100,-148,210,-196
1,201548,-3498,2426,-611,-131,-226,-100,-148,210,-196
1,201553,-3498,2426,-611,-131,-226,-100,-148,210,-196
1,201559,-3493,2429,-611,-136,-227,-96,-148,210,-196
1,201565,-3493,2429,-611,-136,-227,-96,-148,210,-196
1,201570,-3493,2429,-611,-136,-227,-96,-148,210,-196
1,201575,-3493,2429,-611,-136,-227,-96,-148,210,-196
1,201580,-3494,2428,-604,-131,-225,-97,-148,210,-196
1,201586,-3494,2428,-604,-131,-225,-97,-148,210,-196
1,201592,-3494,2428,-604,-131,-225,-97,-148,210,-196
1,201597,-3494,2428,-604,-131,-225,-97,-148,210,-196
1,201604,-3496,2429,-605,-129,-217,-100,-148,210,-196
1,201609,-3496,2429,-605,-129,-217,-100,-148,210,-196
1,201615,-3496,2429,-605,-129,-217,-100,-148,210,-196
1,201621,-3499,2428,-609,-134,-226,-97,-148,210,-196
1,201626,-3499,2428,-609,-134,-226,-97,-148,210,-196
1,201631,-3499,2428,-609,-134,-226,-97,-148,210,-196
1,201637,-3499,2428,-609,-134,-226,-97,-148,210,-196
1,201643,-3493,2427,-608,-139,-224,-98,-154,222,-210
1,201649,-3493,2427,-608,-139,-224,-98,-154,222,-210
1,201654,-3493,2427,-608,-139,-224,-98,-154,222,-210
1,201659,-3495,2427,-606,-127,-225,-101,-154,222,-210
1,201665,-3495,2427,-606,-127,-225,-101,-154,222,-210
1,201670,-3495,2427,-606,-127,-225,-101,-154,222,-210
1,201675,-3495,2427,-606,-127,-225,-101,-154,222,-210
1,201681,-3497,2426,-611,-133,-230,-95,-154,222,-210
1,201687,-3497,2426,-611,-133,-230,-95,-154,222,-210
1,201694,-3497,2426,-611,-133,-230,-95,-154,222,-210
1,201699,-3494,2426,-611,-138,-226,-95,-154,222,-210
1,201704,-3494,2426,-611,-138,-226,-95,-154,222,-210
1,201709,-3494,2426,-611,-138,-226,-95,-154,222,-210
1,201715,-3494,2426,-611,-138,-226,-95,-154,222,-210
1,201720,-3495,2428,-609,-133,-233,-96,-154,222,-210
1,201725,-3495,2428,-609,-133,-233,-96,-154,222,-210
1,201732,-3495,2428,-609,-133,-233,-96,-154,222,-210
1,201738,-3495,2428,-609,-133,-233,-96,-154,222,-210
1,201744,-3494,2430,-608,-135,-218,-99,-154,222,-210
1,201749,-3494,2430,-608,-135,-218,-99,-154,222,-210
1,201755,-3494,2430,-608,-135,-218,-99,-154,222,-210
1,201761,-3497,2426,-613,-135,-217,-101,-154,222,-210
1,201766,-3497,2426,-613,-135,-217,-101,-154,222,-210
1,201773,-3497,2426,-613,-135,-217,-101,-154,222,-210
1,201778,-3497,2426,-613,-135,-217,-101,-154,222,-210
1,201783,-3496,2428,-605,-133,-217,-97,-146,218,-214
1,201789,-3496,2428,-605,-133,-217,-97,-146,218,-214
1,201794,-3496,2428,-605,-133,-217,-97,-146,218,-214
1,201800,-3493,2428,-610,-131,-222,-96,-146,218,-214
1,201805,-3493,2428,-610,-131,-222,-96,-146,218,-214
1,201810,-3493,2428,-610,-131,-222,-96,-146,218,-214
1,201816,-3493,2428,-610,-131,-222,-96,-146,218,-214
1,201822,-3497,2429,-607,-133,-222,-101,-146,218,-214
1,201827,-3497,2429,-607,-133,-222,-101,-146,218,-214
1,201833,-3497,2429,-607,-133,-222,-101,-146,218,-214
1,201838,-3497,2429,-607,-133,-222,-101,-146,218,-214
1,201844,-3497,2429,-610,-128,-223,-100,-146,218,-214
1,201849,-3497,2429,-610,-128,-223,-100,-146,218,-214
1,201854,-3497,2429,-610,-128,-223,-100,-146,218,-214
1,201861,-3496,2425,-609,-128,-227,-95,-146,218,-214
1,201866,-3496,2425,-609,-128,-227,-95,-146,218,-214
1,201872,-3496,2425,-609,-128,-227,-95,-146,218,-214
1,201877,-3496,2425,-609,-128,-227,-95,-146,218,-214
1,201883,-3494,2425,-610,-129,-215,-98,-146,218,-214
1,201888,-3494,2425,-610,-129,-215,-98,-146,218,-214
1,201894,-3494,2425,-610,-129,-215,-98,-146,218,-214
1,201899,-3494,2426,-608,-132,-219,-100,-145,207,-209
1,201905,-3494,2426,-608,-132,-219,-100,-145,207,-209
1,201910,-3494,2426,-608,-132,-219,-100,-145,207,-209
1,201915,-3494,2426,-608,-132,-219,-100,-145,207,-209
1,201921,-3494,2429,-605,-124,-223,-96,-145,207,-209
1,201926,-3494,2429,-605,-124,-223,-96,-145,207,-209
1,201931,-3494,2429,-605,-124,-223,-96,-145,207,-209
1,201937,-3494,2429,-605,-124,-223,-96,-145,207,-209
1,201943,-3497,2428,-611,-135,-222,-92,-145,207,-209
1,201948,-3497,2428,-611,-135,-222,-92,-145,207,-209
1,201954,-3497,2428,-611,-135,-222,-92,-145,207,-209
1,201959,-3494,2428,-609,-133,-223,-99,-145,207,-209
1,201965,-3494,2428,-609,-133,-223,-99,-145,207,-209
1,201969,-3494,2428,-609,-133,-223,-99,-145,207,-209
1,201975,-3494,2428,-609,-133,-223,-99,-145,207,-209
1,201981,-3497,2427,-609,-132,-217,-100,-145,207,-209
1,201987,-3497,2427,-609,-132,-217,-100,-145,207,-209
1,201992,-3497,2427,-609,-132,-217,-100,-145,207,-209
1,201997,-3497,2427,-609,-132,-217,-100,-145,207,-209
1,202003,-3493,2429,-608,-128,-214,-99,-145,207,-209
1,202008,-3493,2429,-608,-128,-214,-99,-145,207,-209
1,202013,-3493,2429,-608,-128,-214,-99,-145,207,-209
1,202019,-3497,2429,-610,-134,-215,-96,-154,208,-200
1,202025,-3497,2429,-610,-134,-215,-96,-154,208,-200
1,202031,-3497,2429,-610,-134,-215,-96,-154,208,-200
1,202036,-3497,2429,-610,-134,-215,-96,-154,208,-200
1,202041,-3496,2427,-606,-136,-214,-95,-154,208,-200
1,202047,-3496,2427,-606,-136,-214,-95,-154,208,-200
1,202052,-3496,2427,-606,-136,-214,-95,-154,208,-200
1,202058,-3496,2427,-606,-136,-214,-95,-154,208,-200
1,202064,-3498,2426,-608,-136,-219,-97,-154,208,-200
1,202070,-3498,2426,-608,-136,-219,-97,-154,208,-200
1,202076,-3498,2426,-608,-136,-219,-97,-154,208,-200
1,202081,-3499,2426,-607,-133,-219,-100,-154,208,-200
1,202087,-3499,2426,-607,-133,-219,-100,-154,208,-200
1,202092,-3499,2426,-607,-133,-219,-100,-154,208,-200
1,202097,-3499,2426,-607,-133,-219,-100,-154,208,-200
1,202103,-3499,2429,-612,-131,-219,-98,-154,208,-200
1,202108,-3499,2429,-612,-131,-219,-98,-154,208,-200
1,202115,-3499,2429,-612,-131,-219,-98,-154,208,-200
1,202120,-3496,2427,-607,-132,-225,-93,-154,208,-200
1,202125,-3496,2427,-607,-132,-225,-93,-154,208,-200
1,202131,-3496,2427,-607,-132,-225,-93,-154,208,-200
1,202136,-3496,2427,-607,-132,-225,-93,-154,208,-200
1,202141,-3499,2429,-605,-143,-228,-98,-156,212,-214
1,202147,-3499,2429,-605,-143,-228,-98,-156,212,-214
1,202152,-3499,2429,-605,-143,-228,-98,-156,212,-214
1,202158,-3499,2429,-605,-143,-228,-98,-156,212,-214
1,202163,-3498,2429,-610,-135,-222,-90,-156,212,-214
1,202169,-3498,2429,-610,-135,-222,-90,-156,212,-214
1,202174,-3498,2429,-610,-135,-222,-90,-156,212,-214
1,202180,-3497,2428,-607,-131,-230,-85,-156,212,-214
1,202185,-3497,2428,-607,-131,-230,-85,-156,212,-214
1,202191,-3497,2428,-607,-131,-230,-85,-156,212,-214
1,202198,-3497,2428,-607,-131,-230,-85,-156,212,-214
1,202203,-3493,2426,-608,-129,-226,-91,-156,212,-214
1,202208,-3493,2426,-608,-129,-226,-91,-156,212,-214
1,202213,-3493,2426,-608,-129,-226,-91,-156,212,-214
1,202219,-3493,2426,-608,-129,-226,-91,-156,212,-214
1,202224,-3496,2427,-606,-131,-224,-95,-156,212,-214
1,202229,-3496,2427,-606,-131,-224,-95,-156,212,-214
1,202234,-3496,2427,-606,-131,-224,-95,-156,212,-214
1,202240,-3494,2426,-609,-132,-234,-98,-156,212,-214
1,202246,-3494,2426,-609,-132,-234,-98,-156,212,-214
1,202251,-3494,2426,-609,-132,-234,-98,-156,212,-214
1,202257,-3494,2426,-609,-132,-234,-98,-156,212,-214
1,202263,-3492,2425,-607,-135,-235,-95,-151,205,-211
1,202268,-3492,2425,-607,-135,-235,-95,-151,205,-211
1,202273,-3492,2425,-607,-135,-235,-95,-151,205,-211
1,202279,-3499,2426,-609,-137,-231,-90,-151,205,-211
1,202285,-3499,2426,-609,-137,-231,-90,-151,205,-211
1,202291,-3499,2426,-609,-137,-231,-90,-151,205,-211
1,202296,-3499,2426,-609,-137,-231,-90,-151,205,-211
1,202302,-3495,2427,-611,-135,-223,-93,-151,205,-211
1,202307,-3495,2427,-611,-135,-223,-93,-151,205,-211
1,202312,-3495,2427,-611,-135,-223,-93,-151,205,-211
1,202318,-3495,2427,-611,-135,-223,-93,-151,205,-211
1,202323,-3497,2426,-608,-136,-229,-90,-151,205,-211
1,202329,-3497,2426,-608,-136,-229,-90,-151,205,-211
1,202335,-3497,2426,-608,-136,-229,-90,-151,205,-211
1,202340,-3496,2428,-611,-129,-228,-93,-151,205,-211
1,202346,-3496,2428,-611,-129,-228,-93,-151,205,-211
1,202351,-3496,2428,-611,-129,-228,-93,-151,205,-211
1,202357,-3496,2428,-611,-129,-228,-93,-151,205,-211
1,202362,-3497,2426,-611,-125,-221,-99,-151,205,-211
1,202369,-3497,2426,-611,-125,-221,-99,-151,205,-211
1,202375,-3497,2426,-611,-125,-221,-99,-151,205,-211
1,202380,-3496,2426,-607,-133,-222,-96,-151,205,-211
1,202385,-3496,2426,-607,-133,-222,-96,-151,205,-211
1,202391,-3496,2426,-607,-133,-222,-96,-151,205,-211
1,202396,-3496,2426,-607,-133,-222,-96,-151,205,-211
1,202402,-3494,2427,-604,-134,-221,-92,-153,213,-205
1,202407,-3494,2427,-604,-134,-221,-92,-153,213,-205
1,202414,-3494,2427,-604,-134,-221,-92,-153,213,-205
1,202419,-3494,2427,-604,-134,-221,-92,-153,213,-205
1,202424,-3497,2426,-606,-132,-224,-93,-153,213,-205
1,202430,-3497,2426,-606,-132,-224,-93,-153,213,-205
1,202435,-3497,2426,-606,-132,-224,-93,-153,213,-205
1,202441,-3498,2425,-608,-130,-216,-98,-153,213,-205
1,202446,-3498,2425,-608,-130,-216,-98,-153,213,-205
1,202452,-3498,2425,-608,-130,-216,-98,-153,213,-205
1,202459,-3498,2425,-608,-130,-216,-98,-153,213,-205
1,202464,-3500,2424,-608,-140,-223,-94,-153,213,-205
1,202469,-3500,2424,-608,-140,-223,-94,-153,213,-205
1,202475,-3500,2424,-608,-140,-223,-94,-153,213,-205
1,202480,-3495,2426,-610,-134,-217,-97,-153,213,-205
1,202485,-3495,2426,-610,-134,-217,-97,-153,213,-205
1,202491,-3495,2426,-610,-134,-217,-97,-153,213,-205
1,202497,-3495,2426,-610,-134,-217,-97,-153,213,-205
1,202503,-3493,2426,-606,-126,-216,-98,-153,213,-205
1,202508,-3493,2426,-606,-126,-216,-98,-153,213,-205
1,202513,-3493,2426,-606,-126,-216,-98,-153,213,-205
1,202519,-3493,2426,-606,-126,-216,-98,-153,213,-205
1,202524,-3495,2426,-607,-129,-227,-99,-150,210,-214
1,202530,-3495,2426,-607,-129,-227,-99,-150,210,-214
1,202535,-3495,2426,-607,-129,-227,-99,-150,210,-214
1,202542,-3495,2427,-608,-133,-221,-94,-150,210,-214
1,202547,-3495,2427,-608,-133,-221,-94,-150,210,-214
1,202553,-3495,2427,-608,-133,-221,-94,-150,210,-214
1,202558,-3495,2427,-608,-133,-221,-94,-150,210,-214
1,202564,-3496,2425,-612,-130,-216,-96,-150,210,-214
1,202569,-3496,2425,-612,-130,-216,-96,-150,210,-214
1,202574,-3496,2425,-612,-130,-216,-96,-150,210,-214
1,202580,-3496,2425,-612,-130,-216,-96,-150,210,-214
1,202586,-3496,2425,-612,-130,-216,-96,-150,210,-214
1,202591,-3496,2425,-612,-130,-216,-96,-150,210,-214
1,202597,-3496,2425,-612,-130,-216,-96,-150,210,-214
1,202602,-3494,2427,-609,-125,-230,-98,-150,210,-214
1,202607,-3494,2427,-609,-125,-230,-98,-150,210,-214
1,202612,-3494,2427,-609,-125,-230,-98,-150,210,-214
1,202618,-3494,2427,-609,-125,-230,-98,-150,210,-214
1,202624,-3496,2426,-608,-130,-225,-97,-150,210,-214
1,202629,-3496,2426,-608,-130,-225,-97,-150,210,-214
1,202634,-3496,2426,-608,-130,-225,-97,-150,210,-214
1,202640,-3495,2427,-603,-133,-224,-90,-149,211,-215
1,202645,-3495,2427,-603,-133,-224,-90,-149,211,-215
1,202650,-3495,2427,-603,-133,-224,-90,-149,211,-215
1,202656,-3495,2427,-603,-133,-224,-90,-149,211,-215
1,202661,-3495,2427,-608,-134,-217,-96,-149,211,-215
1,202667,-3495,2427,-608,-134,-217,-96,-149,211,-215
1,202672,-3495,2427,-608,-134,-217,-96,-149,211,-215
1,202677,-3495,2427,-608,-134,-217,-96,-149,211,-215
1,202682,-3494,2427,-609,-131,-226,-94,-149,211,-215
1,202688,-3494,2427,-609,-131,-226,-94,-149,211,-215
1,202693,-3494,2427,-609,-131,-226,-94,-149,211,-215
1,202699,-3494,2427,-609,-131,-226,-94,-149,211,-215
1,202706,-3496,2429,-607,-130,-224,-96,-149,211,-215
1,202713,-3496,2429,-607,-130,-224,-96,-149,211,-215
1,202718,-3496,2429,-607,-130,-224,-96,-149,211,-215
1,202723,-3497,2428,-610,-137,-216,-100,-149,211,-215
1,202728,-3497,2428,-610,-137,-216,-100,-149,211,-215
1,202734,-3497,2428,-610,-137,-216,-100,-149,211,-215
1,202739,-3498,2429,-608,-127,-220,-95,-149,211,-215
1,202745,-3498,2429,-608,-127,-220,-95,-149,211,-215
1,202752,-3498,2429,-608,-127,-220,-95,-149,211,-215
1,202757,-3498,2429,-608,-127,-220,-95,-149,211,-215
1,202763,-3496,2426,-604,-137,-221,-94,-151,211,-203
1,202768,-3496,2426,-604,-137,-221,-94,-151,211,-203
1,202773,-3496,2426,-604,-137,-221,-94,-151,211,-203
1,202779,-3496,2426,-604,-137,-221,-94,-151,211,-203
1,202784,-3498,2428,-612,-131,-217,-92,-151,211,-203
1,202790,-3498,2428,-612,-131,-217,-92,-151,211,-203
1,202796,-3498,2428,-612,-131,-217,-92,-151,211,-203
1,202801,-3498,2424,-610,-136,-223,-96,-151,211,-203
1,202807,-3498,2424,-610,-136,-223,-96,-151,211,-203
1,202812,-3498,2424,-610,-136,-223,-96,-151,211,-203
1,202818,-3498,2424,-610,-136,-223,-96,-151,211,-203
1,202823,-3495,2427,-609,-130,-220,-95,-151,211,-203
1,202829,-3495,2427,-609,-130,-220,-95,-151,211,-203
1,202834,-3495,2427,-609,-130,-220,-95,-151,211,-203
1,202841,-3493,2429,-609,-128,-222,-98,-151,211,-203
1,202846,-3493,2429,-609,-128,-222,-98,-151,211,-203
1,202852,-3493,2429,-609,-128,-222,-98,-151,211,-203
1,202857,-3493,2429,-609,-128,-222,-98,-151,211,-203
1,202862,-3497,2428,-608,-133,-222,-95,-151,211,-203
1,202868,-3497,2428,-608,-133,-222,-95,-151,211,-203
1,202873,-3497,2428,-608,-133,-222,-95,-151,211,-203
1,202878,-3497,2428,-608,-133,-222,-95,-151,211,-203
1,202884,-3494,2426,-604,-130,-222,-96,-151,213,-211
1,202890,-3494,2426,-604,-130,-222,-96,-151,213,-211
1,202895,-3494,2426,-604,-130,-222,-96,-151,213,-211
1,202900,-3494,2427,-607,-131,-225,-94,-151,213,-211
1,202905,-3494,2427,-607,-131,-225,-94,-151,213,-211
1,202910,-3494,2427,-607,-131,-225,-94,-151,213,-211
1,202916,-3494,2427,-607,-131,-225,-94,-151,213,-211
1,202921,-3495,2427,-601,-128,-229,-94,-151,213,-211
1,202928,-3495,2427,-601,-128,-229,-94,-151,213,-211
1,202933,-3495,2427,-601,-128,-229,-94,-151,213,-211
1,202938,-3495,2427,-601,-128,-229,-94,-151,213,-211
1,202943,-3496,2428,-611,-141,-229,-96,-151,213,-211
1,202949,-3496,2428,-611,-141,-229,-96,-151,213,-211
1,202954,-3496,2428,-611,-141,-229,-96,-151,213,-211
1,202960,-3494,2428,-608,-136,-230,-96,-151,213,-211
1,202966,-3494,2428,-608,-136,-230,-96,-151,213,-211
1,202971,-3494,2428,-608,-136,-230,-96,-151,213,-211
1,202976,-3494,2428,-608,-136,-230,-96,-151,213,-211
1,202982,-3497,2426,-609,-128,-223,-96,-151,213,-211
1,202987,-3497,2426,-609,-128,-223,-96,-151,213,-211
1,202992,-3497,2426,-609,-128,-223,-96,-151,213,-211
1,202998,-3497,2426,-609,-128,-223,-96,-151,213,-211
1,203003,-3495,2426,-608,-134,-227,-95,-149,209,-211
1,203009,-3495,2426,-608,-134,-227,-95,-149,209,-211
1,203014,-3495,2426,-608,-134,-227,-95,-149,209,-211
1,203019,-3495,2426,-608,-134,-227,-95,-149,209,-211
1,203025,-3494,2425,-608,-135,-224,-89,-149,209,-211
1,203030,-3494,2425,-608,-135,-224,-89,-149,209,-211
1,203035,-3494,2425,-608,-135,-224,-89,-149,209,-211
1,203040,-3494,2427,-606,-134,-220,-90,-149,209,-211
1,203047,-3494,2427,-606,-134,-220,-90,-149,209,-211
1,203053,-3494,2427,-606,-134,-220,-90,-149,209,-211
1,203058,-3494,2427,-606,-134,-220,-90,-149,209,-211
1,203064,-3494,2428,-606,-134,-221,-92,-149,209,-211
1,203069,-3494,2428,-606,-134,-221,-92,-149,209,-211
1,203074,-3494,2428,-606,-134,-221,-92,-149,209,-211
1,203079,-3494,2428,-606,-134,-221,-92,-149,209,-211
1,203085,-3497,2426,-606,-129,-226,-104,-149,209,-211
1,203090,-3497,2426,-606,-129,-226,-104,-149,209,-211
1,203097,-3497,2426,-606,-129,-226,-104,-149,209,-211
1,203102,-3495,2426,-611,-131,-218,-101,-149,209,-211
1,203107,-3495,2426,-611,-131,-218,-101,-149,209,-211
1,203112,-3495,2426,-611,-131,-218,-101,-149,209,-211
1,203118,-3495,2426,-611,-131,-218,-101,-149,209,-211
1,203123,-3497,2427,-610,-133,-219,-94,-149,209,-211
1,203128,-3497,2427,-610,-133,-219,-94,-149,209,-211
1,203134,-3497,2427,-610,-133,-219,-94,-149,209,-211
1,203140,-3497,2427,-610,-133,-219,-94,-149,209,-211
1,203145,-3494,2426,-602,-133,-223,-98,-165,225,-209
1,203150,-3494,2426,-602,-133,-223,-98,-165,225,-209
1,203155,-3494,2426,-602,-133,-223,-98,-165,225,-209
1,203161,-3495,2428,-609,-132,-235,-95,-165,225,-209
1,203166,-3495,2428,-609,-132,-235,-95,-165,225,-209
1,203171,-3495,2428,-609,-132,-235,-95,-165,225,-209
1,203176,-3495,2428,-609,-132,-235,-95,-165,225,-209
1,203183,-3497,2428,-605,-128,-230,-90,-165,225,-209
1,203188,-3497,2428,-605,-128,-230,-90,-165,225,-209
1,203193,-3497,2428,-605,-128,-230,-90,-165,225,-209
1,203198,-3497,2428,-605,-128,-230,-90,-165,225,-209
1,203203,-3495,2427,-609,-125,-225,-90,-165,225,-209
1,203209,-3495,2427,-609,-125,-225,-90,-165,225,-209
1,203214,-3495,2427,-609,-125,-225,-90,-165,225,-209
1,203219,-3495,2427,-609,-125,-225,-90,-165,225,-209
1,203226,-3494,2427,-611,-127,-226,-90,-165,225,-209
1,203231,-3494,2427,-611,-127,-226,-90,-165,225,-209
1,203237,-3494,2427,-611,-127,-226,-90,-165,225,-209
1,203242,-3495,2428,-608,-131,-223,-94,-165,225,-209
1,203247,-3495,2428,-608,-131,-223,-94,-165,225,-209
1,203253,-3495,2428,-608,-131,-223,-94,-165,225,-209
1,203258,-3495,2428,-608,-131,-223,-94,-165,225,-209
1,203264,-3494,2428,-604,-134,-218,-93,-147,215,-213
1,203270,-3494,2428,-604,-134,-218,-93,-147,215,-213
1,203275,-3494,2428,-604,-134,-218,-93,-147,215,-213
1,203280,-3493,2426,-604,-131,-223,-96,-147,215,-213
1,203286,-3493,2426,-604,-131,-223,-96,-147,215,-213
1,203291,-3493,2426,-604,-131,-223,-96,-147,215,-213
1,203296,-3493,2426,-604,-131,-223,-96,-147,215,-213
1,203302,-3491,2426,-611,-130,-230,-100,-147,215,-213
1,203309,-3491,2426,-611,-130,-230,-100,-147,215,-213
1,203315,-3491,2426,-611,-130,-230,-100,-147,215,-213
1,203320,-3491,2426,-611,-130,-230,-100,-147,215,-213
1,203325,-3495,2427,-608,-135,-225,-99,-147,215,-213
1,203331,-3495,2427,-608,-135,-225,-99,-147,215,-213
1,203336,-3495,2427,-608,-135,-225,-99,-147,215,-213
1,203341,-3493,2428,-613,-132,-227,-97,-147,215,-213
1,203347,-3493,2428,-613,-132,-227,-97,-147,215,-213
1,203354,-3493,2428,-613,-132,-227,-97,-147,215,-213
1,203359,-3493,2428,-613,-132,-227,-97,-147,215,-213
1,203364,-3493,2424,-611,-130,-223,-100,-147,215,-213
1,203369,-3493,2424,-611,-130,-223,-100,-147,215,-213
1,203374,-3493,2424,-611,-130,-223,-100,-147,215,-213
1,203380,-3493,2424,-611,-130,-223,-100,-147,215,-213
1,203385,-3494,2426,-608,-130,-217,-94,-154,204,-202
1,203392,-3494,2426,-608,-130,-217,-94,-154,204,-202
1,203397,-3494,2426,-608,-130,-217,-94,-154,204,-202
1,203402,-3492,2428,-604,-126,-219,-97,-154,204,-202
1,203408,-3492,2428,-604,-126,-219,-97,-154,204,-202
1,203413,-3492,2428,-604,-126,-219,-97,-154,204,-202
1,203419,-3492,2428,-604,-126,-219,-97,-154,204,-202
1,203424,-3497,2428,-608,-132,-216,-89,-154,204,-202
1,203429,-3497,2428,-608,-132,-216,-89,-154,204,-202
1,203435,-3497,2428,-608,-132,-216,-89,-154,204,-202
1,203441,-3494,2428,-610,-129,-228,-92,-154,204,-202
1,203446,-3494,2428,-610,-129,-228,-92,-154,204,-202
1,203451,-3494,2428,-610,-129,-228,-92,-154,204,-202
1,203457,-3494,2428,-610,-129,-228,-92,-154,204,-202
1,203463,-3495,2431,-611,-135,-233,-98,-154,204,-202
1,203468,-3495,2431,-611,-135,-233,-98,-154,204,-202
1,203473,-3495,2431,-611,-135,-233,-98,-154,204,-202
1,203479,-3495,2431,-611,-135,-233,-98,-154,204,-202
1,203484,-3495,2427,-610,-136,-228,-95,-154,204,-202
1,203490,-3495,2427,-610,-136,-228,-95,-154,204,-202
1,203495,-3495,2427,-610,-136,-228,-95,-154,204,-202
1,203501,-3497,2425,-606,-130,-224,-95,-153,211,-207
1,203506,-3497,2425,-606,-130,-224,-95,-153,211,-207
1,203511,-3497,2425,-606,-130,-224,-95,-153,211,-207
1,203516,-3497,2425,-606,-130,-224,-95,-153,211,-207
1,203523,-3496,2427,-608,-133,-226,-105,-153,211,-207
1,203528,-3496,2427,-608,-133,-226,-105,-153,211,-207
1,203534,-3496,2427,-608,-133,-226,-105,-153,211,-207
1,203539,-3496,2427,-608,-133,-226,-105,-153,211,-207
1,203545,-3495,2427,-608,-133,-223,-94,-153,211,-207
1,203549,-3495,2427,-608,-133,-223,-94,-153,211,-207
1,203555,-3495,2427,-608,-133,-223,-94,-153,211,-207
1,203560,-3495,2427,-608,-133,-223,-94,-153,211,-207
1,203567,-3495,2427,-608,-133,-223,-94,-153,211,-207
1,203572,-3495,2427,-608,-133,-223,-94,-153,211,-207
1,203577,-3495,2427,-608,-133,-223,-94,-153,211,-207
1,203583,-3494,2428,-611,-136,-225,-88,-153,211,-207
1,203589,-3494,2428,-611,-136,-225,-88,-153,211,-207
1,203594,-3494,2428,-611,-136,-225,-88,-153,211,-207
1,203599,-3494,2428,-611,-136,-225,-88,-153,211,-207
1,203606,-3493,2427,-603,-133,-223,-87,-153,211,-207
1,203611,-3493,2427,-603,-133,-223,-87,-153,211,-207
1,203616,-3493,2427,-603,-133,-223,-87,-153,211,-207
1,203621,-3495,2430,-606,-133,-220,-97,-149,203,-209
1,203626,-3495,2430,-606,-133,-220,-97,-149,203,-209
1,203632,-3495,2430,-606,-133,-220,-97,-149,203,-209
1,203637,-3495,2430,-606,-133,-220,-97,-149,203,-209
1,203643,-3494,2427,-605,-129,-221,-94,-149,203,-209
1,203650,-3494,2427,-605,-129,-221,-94,-149,203,-209
1,203655,-3494,2427,-605,-129,-221,-94,-149,203,-209
1,203661,-3498,2426,-613,-134,-228,-100,-149,203,-209
1,203667,-3498,2426,-613,-134,-228,-100,-149,203,-209
1,203672,-3498,2426,-613,-134,-228,-100,-149,203,-209
1,203677,-3498,2426,-613,-134,-228,-100,-149,203,-209
1,203683,-3497,2427,-610,-138,-228,-105,-149,203,-209
1,203688,-3497,2427,-610,-138,-228,-105,-149,203,-209
1,203694,-3497,2427,-610,-138,-228,-105,-149,203,-209
1,203700,-3497,2427,-610,-138,-228,-105,-149,203,-209
1,203705,-3497,2425,-610,-138,-226,-105,-149,203,-209
1,203711,-3497,2425,-610,-138,-226,-105,-149,203,-209
1,203716,-3497,2425,-610,-138,-226,-105,-149,203,-209
1,203722,-3495,2428,-607,-142,-218,-96,-149,203,-209
1,203727,-3495,2428,-607,-142,-218,-96,-149,203,-209
1,203732,-3495,2428,-607,-142,-218,-96,-149,203,-209
1,203739,-3495,2428,-607,-142,-218,-96,-149,203,-209
1,203745,-3495,2427,-611,-135,-223,-96,-149,203,-209
1,203750,-3495,2427,-611,-135,-223,-96,-149,203,-209
1,203758,-3495,2427,-611,-135,-223,-96,-149,203,-209
1,203763,-3493,2430,-608,-131,-230,-93,-154,202,-202
1,203769,-3493,2430,-608,-131,-230,-93,-154,202,-202
1,203774,-3493,2430,-608,-131,-230,-93,-154,202,-202
1,203781,-3493,2430,-608,-131,-230,-93,-154,202,-202
1,203787,-3496,2429,-610,-128,-227,-93,-154,202,-202
1,203792,-3496,2429,-610,-128,-227,-93,-154,202,-202
1,203797,-3496,2429,-610,-128,-227,-93,-154,202,-202
1,203803,-3495,2430,-613,-129,-229,-96,-154,202,-202
1,203808,-3495,2430,-613,-129,-229,-96,-154,202,-202
1,203813,-3495,2430,-613,-129,-229,-96,-154,202,-202
1,203819,-3495,2430,-613,-129,-229,-96,-154,202,-202
1,203825,-3495,2429,-608,-133,-231,-94,-154,202,-202
1,203830,-3495,2429,-608,-133,-231,-94,-154,202,-202
1,203836,-3495,2429,-608,-133,-231,-94,-154,202,-202
1,203841,-3498,2429,-607,-130,-226,-95,-154,202,-202
1,203846,-3498,2429,-607,-130,-226,-95,-154,202,-202
1,203852,-3498,2429,-607,-130,-226,-95,-154,202,-202
1,203857,-3498,2429,-607,-130,-226,-95,-154,202,-202
1,203864,-3497,2424,-611,-131,-219,-103,-154,202,-202
1,203869,-3497,2424,-611,-131,-219,-103,-154,202,-202
1,203874,-3497,2424,-611,-131,-219,-103,-154,202,-202
1,203880,-3497,2424,-611,-131,-219,-103,-154,202,-202
1,203885,-3497,2426,-610,-135,-220,-95,-150,212,-204
1,203891,-3497,2426,-610,-135,-220,-95,-150,212,-204
1,203896,-3497,2426,-610,-135,-220,-95,-150,212,-204
1,203902,-3493,2427,-610,-129,-226,-103,-150,212,-204
1,203909,-3493,2427,-610,-129,-226,-103,-150,212,-204
1,203914,-3493,2427,-610,-129,-226,-103,-150,212,-204
1,203920,-3493,2427,-610,-129,-226,-103,-150,212,-204
1,203925,-3495,2430,-610,-133,-226,-93,-150,212,-204
1,203931,-3495,2430,-610,-133,-226,-93,-150,212,-204
1,203935,-3495,2430,-610,-133,-226,-93,-150,212,-204
1,203941,-3495,2427,-607,-131,-223,-96,-150,212,-204
1,203948,-3495,2427,-607,-131,-223,-96,-150,212,-204
1,203953,-3495,2427,-607,-131,-223,-96,-150,212,-204
1,203958,-3495,2427,-607,-131,-223,-96,-150,212,-204
1,203964,-3500,2424,-608,-134,-222,-95,-150,212,-204
1,203969,-3500,2424,-608,-134,-222,-95,-150,212,-204
1,203975,-3500,2424,-608,-134,-222,-95,-150,212,-204
1,203980,-3500,2424,-608,-134,-222,-95,-150,212,-204
1,203985,-3497,2426,-609,-129,-217,-95,-150,212,-204
1,203991,-3497,2426,-609,-129,-217,-95,-150,212,-204
1,203997,-3497,2426,-609,-129,-217,-95,-150,212,-204
1,204002,-3496,2426,-602,-130,-225,-100,-148,214,-210
1,204008,-3496,2426,-602,-130,-225,-100,-148,214,-210
1,204013,-3496,2426,-602,-130,-225,-100,-148,214,-210
1,204019,-3496,2426,-602,-130,-225,-100,-148,214,-210
1,204023,-3495,2426,-608,-129,-228,-99,-148,214,-210
1,204029,-3495,2426,-608,-129,-228,-99,-148,214,-210
1,204035,-3495,2426,-608,-129,-228,-99,-148,214,-210
1,204041,-3495,2426,-608,-129,-228,-99,-148,214,-210
1,204047,-3494,2426,-615,-131,-223,-94,-148,214,-210
1,204052,-3494,2426,-615,-131,-223,-94,-148,214,-210
1,204058,-3494,2426,-615,-131,-223,-94,-148,214,-210
1,204063,-3496,2427,-609,-127,-223,-95,-148,214,-210
1,204068,-3496,2427,-609,-127,-223,-95,-148,214,-210
1,204075,-3496,2427,-609,-127,-223,-95,-148,214,-210
1,204080,-3496,2427,-609,-127,-223,-95,-148,214,-210
1,204085,-3498,2429,-606,-135,-218,-96,-148,214,-210
1,204091,-3498,2429,-606,-135,-218,-96,-148,214,-210
1,204096,-3498,2429,-606,-135,-218,-96,-148,214,-210
1,204102,-3493,2428,-607,-141,-225,-93,-148,214,-210
1,204107,-3493,2428,-607,-141,-225,-93,-148,214,-210
1,204113,-3493,2428,-607,-141,-225,-93,-148,214,-210
1,204120,-3493,2428,-607,-141,-225,-93,-148,214,-210
1,204125,-3497,2429,-604,-139,-216,-101,-153,205,-209
1,204130,-3497,2429,-604,-139,-216,-101,-153,205,-209
1,204136,-3497,2429,-604,-139,-216,-101,-153,205,-209
1,204141,-3492,2429,-606,-131,-226,-96,-153,205,-209
1,204147,-3492,2429,-606,-131,-226,-96,-153,205,-209
1,204152,-3492,2429,-606,-131,-226,-96,-153,205,-209
1,204157,-3492,2429,-606,-131,-226,-96,-153,205,-209
1,204164,-3497,2424,-612,-130,-222,-95,-153,205,-209
1,204169,-3497,2424,-612,-130,-222,-95,-153,205,-209
1,204174,-3497,2424,-612,-130,-222,-95,-153,205,-209
1,204180,-3497,2424,-612,-130,-222,-95,-153,205,-209
1,204185,-3495,2430,-611,-131,-220,-101,-153,205,-209
1,204190,-3495,2430,-611,-131,-220,-101,-153,205,-209
1,204196,-3495,2430,-611,-131,-220,-101,-153,205,-209
1,204201,-3494,2428,-612,-131,-225,-95,-153,205,-209
1,204208,-3494,2428,-612,-131,-225,-95,-153,205,-209
1,204213,-3494,2428,-612,-131,-225,-95,-153,205,-209
1,204218,-3494,2428,-612,-131,-225,-95,-153,205,-209
1,204224,-3496,2424,-607,-124,-223,-95,-153,205,-209
1,204229,-3496,2424,-607,-124,-223,-95,-153,205,-209
1,204234,-3496,2424,-607,-124,-223,-95,-153,205,-209
1,204241,-3496,2429,-608,-133,-223,-88,-151,205,-209
1,204247,-3496,2429,-608,-133,-223,-88,-151,213,-209
1,204252,-3496,2429,-608,-133,-223,-88,-151,213,-209
1,204257,-3496,2429,-608,-133,-223,-88,-151,213,-209
1,204263,-3498,2425,-600,-131,-221,-89,-151,213,-209
1,204268,-3498,2425,-600,-131,-221,-89,-151,213,-209
1,204274,-3498,2425,-600,-131,-221,-89,-151,213,-209
1,204279,-3498,2425,-600,-131,-221,-89,-151,213,-209
1,204284,-3494,2427,-608,-130,-219,-99,-151,213,-209
1,204291,-3494,2427,-608,-130,-219,-99,-151,213,-209
1,204296,-3494,2427,-608,-130,-219,-99,-151,213,-209
1,204302,-3497,2425,-612,-136,-219,-99,-151,213,-209
1,204307,-3497,2425,-612,-136,-219,-99,-151,213,-209
1,204313,-3497,2425,-612,-136,-219,-99,-151,213,-209
1,204319,-3497,2425,-612,-136,-219,-99,-151,213,-209
1,204324,-3494,2427,-609,-131,-222,-101,-151,213,-209
1,204331,-3494,2427,-609,-131,-222,-101,-151,213,-209
1,204337,-3494,2427,-609,-131,-222,-101,-151,213,-209
1,204342,-3494,2427,-609,-130,-219,-96,-151,213,-209
1,204348,-3494,2427,-609,-130,-219,-96,-151,213,-209
1,204353,-3494,2427,-609,-130,-219,-96,-151,213,-209
1,204359,-3494,2427,-609,-130,-219,-96,-151,213,-209
1,204364,-3495,2430,-608,-126,-219,-92,-152,208,-204
1,204370,-3495,2430,-608,-126,-219,-92,-152,208,-204
1,204376,-3495,2430,-608,-126,-219,-92,-152,208,-204
1,204381,-3495,2430,-608,-126,-219,-92,-152,208,-204
1,204388,-3494,2426,-608,-130,-218,-101,-152,208,-204
1,204393,-3494,2426,-608,-130,-218,-101,-152,208,-204
1,204401,-3494,2426,-608,-130,-218,-101,-152,208,-204
1,204408,-3494,2429,-610,-133,-217,-94,-152,208,-204
1,204414,-3494,2429,-610,-133,-217,-94,-152,208,-204
1,204421,-3494,2429,-610,-133,-217,-94,-152,208,-204
1,204426,-3496,2426,-607,-133,-220,-98,-152,208,-204
1,204431,-3496,2426,-607,-133,-220,-98,-152,208,-204
1,204437,-3496,2426,-607,-133,-220,-98,-152,208,-204
1,204442,-3497,2430,-609,-131,-219,-96,-152,208,-204
1,204448,-3497,2430,-609,-131,-219,-96,-152,208,-204
1,204453,-3497,2430,-609,-131,-219,-96,-152,208,-204
1,204460,-3497,2430,-609,-131,-219,-96,-152,208,-204
1,204465,-3496,2427,-612,-123,-217,-99,-152,208,-204
1,204471,-3496,2427,-612,-123,-217,-99,-152,208,-204
1,204476,-3496,2427,-612,-123,-217,-99,-152,208,-204
1,204482,-3495,2426,-612,-132,-214,-92,-152,208,-204
1,204487,-3495,2426,-612,-132,-214,-92,-152,208,-204
1,204492,-3495,2426,-612,-132,-214,-92,-152,208,-204
1,204498,-3495,2426,-612,-132,-214,-92,-152,208,-204
1,204504,-3497,2426,-606,-130,-223,-96,-157,207,-209
1,204510,-3497,2426,-606,-130,-223,-96,-157,207,-209
1,204515,-3497,2426,-606,-130,-223,-96,-157,207,-209
1,204521,-3497,2426,-606,-130,-223,-96,-157,207,-209
1,204526,-3497,2426,-609,-136,-223,-97,-157,207,-209
1,204532,-3497,2426,-609,-136,-223,-97,-157,207,-209
1,204537,-3497,2426,-609,-136,-223,-97,-157,207,-209
1,204542,-3493,2425,-603,-136,-223,-95,-157,207,-209
1,204549,-3493,2425,-603,-136,-223,-95,-157,207,-209
1,204554,-3493,2425,-603,-136,-223,-95,-157,207,-209
1,204559,-3493,2425,-603,-136,-223,-95,-157,207,-209
1,204565,-3497,2426,-606,-134,-230,-91,-157,207,-209
1,204570,-3497,2426,-606,-134,-230,-91,-157,207,-209
1,204576,-3497,2426,-606,-134,-230,-91,-157,207,-209
1,204581,-3494,2427,-617,-134,-220,-98,-157,207,-209
1,204587,-3494,2427,-617,-134,-220,-98,-157,207,-209
1,204593,-3494,2427,-617,-134,-220,-98,-157,207,-209
1,204598,-3494,2427,-617,-134,-220,-98,-157,207,-209
1,204603,-3496,2423,-608,-126,-217,-94,-157,207,-209
1,204609,-3496,2423,-608,-126,-217,-94,-157,207,-209
1,204614,-3496,2423,-608,-126,-217,-94,-157,207,-209
1,204619,-3496,2423,-608,-126,-217,-94,-157,207,-209
1,204625,-3494,2431,-605,-129,-224,-99,-156,208,-206
1,204631,-3494,2431,-605,-129,-224,-99,-156,208,-206
1,204636,-3494,2431,-605,-129,-224,-99,-156,208,-206
1,204641,-3494,2431,-605,-129,-224,-99,-156,208,-206
1,204647,-3497,2429,-609,-129,-225,-93,-156,208,-206
1,204652,-3497,2429,-609,-129,-225,-93,-156,208,-206
1,204657,-3497,2429,-609,-129,-225,-93,-156,208,-206
1,204663,-3494,2427,-608,-135,-227,-94,-156,208,-206
1,204669,-3494,2427,-608,-135,-227,-94,-156,208,-206
1,204675,-3494,2427,-608,-135,-227,-94,-156,208,-206
1,204680,-3494,2427,-608,-135,-227,-94,-156,208,-206
1,204686,-3495,2424,-610,-136,-220,-95,-156,208,-206
1,204691,-3495,2424,-610,-136,-220,-95,-156,208,-206
1,204697,-3495,2424,-610,-136,-220,-95,-156,208,-206
1,204702,-3498,2426,-605,-135,-221,-96,-156,208,-206
1,204708,-3498,2426,-605,-135,-221,-96,-156,208,-206
1,204713,-3498,2426,-605,-135,-221,-96,-156,208,-206
1,204720,-3498,2426,-605,-135,-221,-96,-156,208,-206
1,204725,-3494,2427,-607,-136,-223,-96,-156,208,-206
1,204731,-3494,2427,-607,-136,-223,-96,-156,208,-206
1,204736,-3494,2427,-607,-136,-223,-96,-156,208,-206
1,204741,-3494,2427,-607,-136,-223,-96,-156,208,-206
1,204746,-3496,2428,-605,-132,-220,-94,-156,206,-206
1,204751,-3496,2428,-605,-132,-220,-94,-156,206,-206
1,204756,-3496,2428,-605,-132,-220,-94,-156,206,-206
1,204763,-3498,2427,-605,-135,-216,-92,-156,206,-206
1,204768,-3498,2427,-605,-135,-216,-92,-156,206,-206
1,204774,-3498,2427,-605,-135,-216,-92,-156,206,-206
1,204779,-3498,2427,-605,-135,-216,-92,-156,206,-206
1,204784,-3498,2427,-605,-135,-216,-92,-156,206,-206
1,204789,-3498,2427,-605,-135,-216,-92,-156,206,-206
1,204794,-3498,2427,-605,-135,-216,-92,-156,206,-206
1,204800,-3498,2427,-605,-135,-216,-92,-156,206,-206
1,204806,-3497,2424,-612,-137,-222,-83,-156,206,-206
1,204812,-3497,2424,-612,-137,-222,-83,-156,206,-206
1,204817,-3497,2424,-612,-137,-222,-83,-156,206,-206
1,204822,-3495,2428,-609,-131,-219,-89,-156,206,-206
1,204827,-3495,2428,-609,-131,-219,-89,-156,206,-206
1,204833,-3495,2428,-609,-131,-219,-89,-156,206,-206
1,204838,-3495,2428,-609,-131,-219,-89,-156,206,-206
1,204845,-3497,2425,-615,-134,-215,-96,-156,206,-206
1,204850,-3497,2425,-615,-134,-215,-96,-156,206,-206
1,204856,-3497,2425,-615,-134,-215,-96,-156,206,-206
1,204860,-3497,2425,-615,-134,-215,-96,-156,206,-206
1,204866,-3494,2424,-609,-138,-220,-92,-153,209,-201
1,204871,-3494,2424,-609,-138,-220,-92,-153,209,-201
1,204877,-3494,2424,-609,-138,-220,-92,-153,209,-201
1,204882,-3495,2424,-608,-137,-225,-97,-153,209,-201
1,204888,-3495,2424,-608,-137,-225,-97,-153,209,-201
1,204893,-3495,2424,-608,-137,-225,-97,-153,209,-201
1,204899,-3495,2424,-608,-137,-225,-97,-153,209,-201
1,204904,-3496,2424,-611,-132,-220,-95,-153,209,-201
1,204910,-3496,2424,-611,-132,-220,-95,-153,209,-201
1,204916,-3496,2424,-611,-132,-220,-95,-153,209,-201
1,204921,-3496,2426,-608,-137,-226,-90,-153,209,-201
1,204926,-3496,2426,-608,-137,-226,-90,-153,209,-201
1,204933,-3496,2426,-608,-137,-226,-90,-153,209,-201
1,204938,-3496,2426,-608,-137,-226,-90,-153,209,-201
1,204943,-3495,2426,-611,-138,-221,-93,-153,209,-201
1,204948,-3495,2426,-611,-138,-221,-93,-153,209,-201
1,204954,-3495,2426,-611,-138,-221,-93,-153,209,-201
1,204959,-3495,2426,-611,-138,-221,-93,-153,209,-201
1,204965,-3497,2427,-605,-134,-222,-106,-153,209,-201
1,204971,-3497,2427,-605,-134,-222,-106,-153,209,-201
1,204976,-3497,2427,-605,-134,-222,-106,-153,209,-201
1,204982,-3497,2427,-605,-134,-222,-106,-153,209,-201
1,204987,-3495,2428,-606,-129,-223,-106,-150,204,-210
1,204992,-3495,2428,-606,-129,-223,-106,-150,204,-210
1,204998,-3495,2428,-606,-129,-223,-106,-150,204,-210
1,205003,-3495,2426,-605,-139,-228,-91,-150,204,-210
1,205008,-3495,2426,-605,-139,-228,-91,-150,204,-210
1,205015,-3495,2426,-605,-139,-228,-91,-150,204,-210
1,205021,-3495,2426,-605,-139,-228,-91,-150,204,-210
1,205025,-3495,2428,-610,-132,-224,-94,-150,204,-210
1,205031,-3495,2428,-610,-132,-224,-94,-150,204,-210
1,205037,-3495,2428,-610,-132,-224,-94,-150,204,-210
1,205043,-3495,2428,-608,-130,-222,-97,-150,204,-210
1,205049,-3495,2428,-608,-130,-222,-97,-150,204,-210
1,205056,-3495,2428,-608,-130,-222,-97,-150,204,-210
1,205062,-3495,2428,-608,-130,-222,-97,-150,204,-210
1,205067,-3497,2424,-608,-134,-231,-92,-150,204,-210
1,205072,-3497,2424,-608,-134,-231,-92,-150,204,-210
1,205077,-3497,2424,-608,-134,-231,-92,-150,204,-210
1,205083,-3495,2429,-612,-140,-229,-105,-150,204,-210
1,205088,-3495,2429,-612,-140,-229,-105,-150,204,-210
1,205094,-3495,2429,-612,-140,-229,-105,-150,204,-210
1,205100,-3495,2429,-612,-140,-229,-105,-150,204,-210
1,205106,-3496,2428,-608,-143,-229,-96,-150,204,-210
1,205111,-3496,2428,-608,-143,-229,-96,-150,204,-210
1,205116,-3496,2428,-608,-143,-229,-96,-150,204,-210
1,205122,-3496,2428,-608,-143,-229,-96,-150,204,-210
1,205127,-3496,2423,-608,-136,-221,-95,-150,204,-210
1,205133,-3496,2423,-608,-136,-221,-95,-150,204,-210
1,205138,-3496,2423,-608,-136,-221,-95,-150,204,-210
1,205145,-3495,2427,-609,-129,-224,-92,-150,204,-210
1,205150,-3495,2427,-609,-129,-224,-92,-150,204,-210
1,205155,-3495,2427,-609,-129,-224,-92,-150,204,-210
1,205161,-3495,2427,-609,-129,-224,-92,-150,204,-210
1,205166,-3496,2428,-609,-132,-216,-93,-150,204,-210
1,205172,-3496,2428,-609,-132,-216,-93,-150,204,-210
1,205178,-3496,2428,-609,-132,-216,-93,-150,204,-210
1,205184,-3494,2424,-612,-138,-227,-101,-150,204,-210
1,205189,-3494,2424,-612,-138,-227,-101,-150,204,-210
1,205194,-3494,2424,-612,-138,-227,-101,-150,204,-210
1,205199,-3494,2424,-612,-138,-227,-101,-150,204,-210
1,205205,-3490,2429,-612,-137,-222,-96,-150,204,-210
1,205210,-3490,2429,-612,-137,-222,-96,-150,204,-210
1,205216,-3490,2429,-612,-137,-222,-96,-150,204,-210
1,205221,-3490,2429,-612,-137,-222,-96,-150,204,-210
1,205227,-3494,2426,-611,-126,-224,-94,-150,204,-210
1,205233,-3494,2426,-611,-126,-224,-94,-150,204,-210
1,205238,-3494,2426,-611,-126,-224,-94,-150,204,-210
1,205243,-3498,2427,-607,-133,-231,-92,-157,203,-205
1,205249,-3498,2427,-607,-133,-231,-92,-157,203,-205
1,205254,-3498,2427,-607,-133,-231,-92,-157,203,-205
1,205260,-3498,2427,-607,-133,-231,-92,-157,203,-205
1,205266,-3498,2426,-613,-132,-233,-98,-157,203,-205
1,205272,-3498,2426,-613,-132,-233,-98,-157,203,-205
1,205277,-3498,2426,-613,-132,-233,-98,-157,203,-205
1,205282,-3494,2428,-610,-129,-226,-99,-157,203,-205
1,205288,-3494,2428,-610,-129,-226,-99,-157,203,-205
1,205293,-3494,2428,-610,-129,-226,-99,-157,203,-205
1,205299,-3494,2428,-610,-129,-226,-99,-157,203,-205
1,205304,-3497,2428,-610,-127,-230,-88,-157,203,-205
1,205309,-3497,2428,-610,-127,-230,-88,-157,203,-205
1,205316,-3497,2428,-610,-127,-230,-88,-157,203,-205
1,205321,-3497,2428,-610,-127,-230,-88,-157,203,-205
1,205326,-3497,2426,-611,-128,-234,-96,-157,203,-205
1,205332,-3497,2426,-611,-128,-234,-96,-157,203,-205
1,205337,-3497,2426,-611,-128,-234,-96,-157,203,-205
1,205343,-3496,2429,-612,-129,-230,-92,-157,203,-205
1,205348,-3496,2429,-612,-129,-230,-92,-157,203,-205
1,205353,-3496,2429,-612,-129,-230,-92,-157,203,-205
1,205359,-3496,2429,-612,-129,-230,-92,-157,203,-205
1,205365,-3497,2430,-607,-132,-226,-93,-150,216,-204
1,205370,-3497,2430,-607,-132,-226,-93,-150,216,-204
1,205376,-3497,2430,-607,-132,-226,-93,-150,216,-204
1,205381,-3497,2430,-607,-132,-226,-93,-150,216,-204
1,205387,-3493,2427,-607,-133,-231,-99,-150,216,-204
1,205392,-3493,2427,-607,-133,-231,-99,-150,216,-204
1,205399,-3493,2427,-607,-133,-231,-99,-150,216,-204
1,205404,-3495,2428,-608,-137,-223,-97,-150,216,-204
1,205409,-3495,2428,-608,-137,-223,-97,-150,216,-204
1,205415,-3495,2428,-608,-137,-223,-97,-150,216,-204
1,205420,-3495,2428,-608,-137,-223,-97,-150,216,-204
1,205426,-3496,2426,-609,-136,-223,-101,-150,216,-204
1,205431,-3496,2426,-609,-136,-223,-101,-150,216,-204
1,205437,-3496,2426,-609,-136,-223,-101,-150,216,-204
1,205443,-3496,2428,-609,-133,-231,-90,-150,216,-204
1,205448,-3496,2428,-609,-133,-231,-90,-150,216,-204
1,205454,-3496,2428,-609,-133,-231,-90,-150,216,-204
1,205459,-3496,2428,-609,-133,-231,-90,-150,216,-204
1,205464,-3497,2427,-610,-135,-222,-91,-150,216,-204
1,205470,-3497,2427,-610,-135,-222,-91,-150,216,-204
1,205474,-3497,2427,-610,-135,-222,-91,-150,216,-204
1,205479,-3497,2427,-610,-135,-222,-91,-150,216,-204
1,205486,-3498,2429,-608,-133,-222,-88,-153,217,-205
1,205491,-3498,2429,-608,-133,-222,-88,-153,217,-205
1,205497,-3498,2429,-608,-133,-222,-88,-153,217,-205
1,205502,-3498,2429,-608,-133,-222,-88,-153,217,-205
1,205507,-3499,2424,-602,-132,-227,-97,-153,217,-205
1,205513,-3499,2424,-602,-132,-227,-97,-153,217,-205
1,205518,-3499,2424,-602,-132,-227,-97,-153,217,-205
1,205524,-3494,2427,-607,-130,-228,-94,-153,217,-205
1,205530,-3494,2427,-607,-130,-228,-94,-153,217,-205
1,205536,-3494,2427,-607,-130,-228,-94,-153,217,-205
1,205541,-3494,2427,-607,-130,-228,-94,-153,217,-205
1,205546,-3495,2425,-616,-129,-217,-94,-153,217,-205
1,205552,-3495,2425,-616,-129,-217,-94,-153,217,-205
1,205557,-3495,2425,-616,-129,-217,-94,-153,217,-205
1,205562,-3495,2425,-616,-129,-217,-94,-153,217,-205
1,205568,-3496,2427,-610,-133,-227,-100,-153,217,-205
1,205574,-3496,2427,-610,-133,-227,-100,-153,217,-205
1,205579,-3496,2427,-610,-133,-227,-100,-153,217,-205
1,205585,-3495,2427,-612,-133,-224,-96,-153,217,-205
1,205589,-3495,2427,-612,-133,-224,-96,-153,217,-205
1,205595,-3495,2427,-612,-133,-224,-96,-153,217,-205
1,205600,-3495,2427,-612,-133,-224,-96,-153,217,-205
1,205606,-3493,2426,-606,-126,-221,-98,-153,205,-209
1,205612,-3493,2426,-606,-126,-221,-98,-153,205,-209
1,205618,-3493,2426,-606,-126,-221,-98,-153,205,-209
1,205622,-3493,2426,-606,-126,-221,-98,-153,205,-209
1,205628,-3495,2428,-607,-131,-232,-101,-153,205,-209
1,205634,-3495,2428,-607,-131,-232,-101,-153,205,-209
1,205639,-3495,2428,-607,-131,-232,-101,-153,205,-209
1,205644,-3498,2428,-612,-134,-217,-97,-153,205,-209
1,205650,-3498,2428,-612,-134,-217,-97,-153,205,-209
1,205656,-3498,2428,-612,-134,-217,-97,-153,205,-209
1,205662,-3498,2428,-612,-134,-217,-97,-153,205,-209
1,205667,-3493,2428,-612,-134,-216,-98,-153,205,-209
1,205672,-3493,2428,-612,-134,-216,-98,-153,205,-209
1,205677,-3493,2428,-612,-134,-216,-98,-153,205,-209
1,205683,-3495,2427,-608,-138,-221,-96,-153,205,-209
1,205688,-3495,2427,-608,-138,-221,-96,-153,205,-209
1,205694,-3495,2427,-608,-138,-221,-96,-153,205,-209
1,205700,-3495,2427,-608,-138,-221,-96,-153,205,-209
1,205705,-3495,2427,-608,-134,-222,-94,-153,205,-209
1,205710,-3495,2427,-608,-134,-222,-94,-153,205,-209
1,205715,-3495,2427,-608,-134,-222,-94,-153,205,-209
1,205721,-3495,2427,-608,-134,-222,-94,-153,205,-209
1,205726,-3494,2427,-608,-132,-219,-95,-148,208,-210
1,205731,-3494,2427,-608,-132,-219,-95,-148,208,-210
1,205736,-3494,2427,-608,-132,-219,-95,-148,208,-210
1,205742,-3494,2427,-608,-132,-219,-95,-148,208,-210
1,205748,-3493,2429,-609,-135,-224,-98,-148,208,-210
1,205753,-3493,2429,-609,-135,-224,-98,-148,208,-210
1,205758,-3493,2429,-609,-135,-224,-98,-148,208,-210
1,205764,-3497,2429,-606,-136,-233,-98,-148,208,-210
1,205770,-3497,2429,-606,-136,-233,-98,-148,208,-210
1,205775,-3497,2429,-606,-136,-233,-98,-148,208,-210
1,205782,-3497,2429,-606,-136,-233,-98,-148,208,-210
1,205787,-3494,2429,-607,-134,-227,-93,-148,208,-210
1,205793,-3494,2429,-607,-134,-227,-93,-148,208,-210
1,205798,-3494,2429,-607,-134,-227,-93,-148,208,-210
1,205804,-3496,2428,-611,-130,-227,-98,-148,208,-210
1,205809,-3496,2428,-611,-130,-227,-98,-148,208,-210
1,205814,-3496,2428,-611,-130,-227,-98,-148,208,-210
1,205819,-3496,2428,-611,-130,-227,-98,-148,208,-210
1,205825,-3497,2430,-607,-131,-229,-89,-148,208,-210
1,205830,-3497,2430,-607,-131,-229,-89,-148,208,-210
1,205835,-3497,2430,-607,-131,-229,-89,-148,208,-210
1,205841,-3497,2430,-607,-131,-229,-89,-148,208,-210
1,205846,-3496,2429,-611,-134,-225,-98,-148,208,-210
1,205852,-3496,2429,-611,-134,-225,-98,-148,208,-210
1,205857,-3496,2429,-611,-134,-225,-98,-148,208,-210
1,205863,-3495,2428,-608,-136,-231,-98,-159,207,-209
1,205869,-3495,2428,-608,-136,-231,-98,-159,207,-209
1,205875,-3495,2428,-608,-136,-231,-98,-159,207,-209
1,205879,-3495,2428,-608,-136,-231,-98,-159,207,-209
1,205885,-3497,2425,-611,-137,-230,-95,-159,207,-209
1,205890,-3497,2425,-611,-137,-230,-95,-159,207,-209
1,205896,-3497,2425,-611,-137,-230,-95,-159,207,-209
1,205901,-3497,2425,-611,-137,-230,-95,-159,207,-209
1,205907,-3498,2428,-609,-138,-227,-95,-159,207,-209
1,205913,-3498,2428,-609,-138,-227,-95,-159,207,-209
1,205919,-3498,2428,-609,-138,-227,-95,-159,207,-209
1,205923,-3496,2426,-611,-137,-221,-95,-159,207,-209
1,205929,-3496,2426,-611,-137,-221,-95,-159,207,-209
1,205934,-3496,2426,-611,-137,-221,-95,-159,207,-209
1,205940,-3496,2426,-611,-137,-221,-95,-159,207,-209
1,205945,-3493,2430,-610,-131,-221,-95,-159,207,-209
1,205952,-3493,2430,-610,-131,-221,-95,-159,207,-209
1,205958,-3493,2430,-610,-131,-221,-95,-159,207,-209
1,205964,-3495,2429,-608,-126,-219,-100,-159,207,-209
1,205969,-3495,2429,-608,-126,-219,-100,-159,207,-209
1,205974,-3495,2429,-608,-126,-219,-100,-159,207,-209
1,205979,-3495,2429,-608,-126,-219,-100,-159,207,-209
1,205985,-3496,2430,-606,-129,-229,-98,-156,204,-210
1,205990,-3496,2430,-606,-129,-229,-98,-156,204,-210
1,205996,-3496,2430,-606,-129,-229,-98,-156,204,-210
1,206002,-3496,2430,-606,-129,-229,-98,-156,204,-210
1,206007,-3495,2431,-605,-129,-223,-97,-156,204,-210
1,206013,-3495,2431,-605,-129,-223,-97,-156,204,-210
1,206018,-3495,2431,-605,-129,-223,-97,-156,204,-210
1,206023,-3497,2427,-611,-131,-221,-95,-156,204,-210
1,206029,-3497,2427,-611,-131,-221,-95,-156,204,-210
1,206034,-3497,2427,-611,-131,-221,-95,-156,204,-210
1,206040,-3497,2427,-611,-131,-221,-95,-156,204,-210
1,206047,-3495,2428,-611,-133,-230,-91,-156,204,-210
1,206052,-3495,2428,-611,-133,-230,-91,-156,204,-210
1,206057,-3495,2428,-611,-133,-230,-91,-156,204,-210
1,206063,-3497,2428,-608,-127,-219,-98,-156,204,-210
1,206069,-3497,2428,-608,-127,-219,-98,-156,204,-210
1,206074,-3497,2428,-608,-127,-219,-98,-156,204,-210
1,206080,-3497,2428,-608,-127,-219,-98,-156,204,-210
1,206085,-3495,2426,-607,-132,-221,-93,-156,204,-210
1,206090,-3495,2426,-607,-132,-221,-93,-156,204,-210
1,206096,-3495,2426,-607,-132,-221,-93,-156,204,-210
1,206101,-3495,2426,-607,-132,-221,-93,-156,204,-210
1,206107,-3493,2426,-608,-139,-215,-95,-151,209,-207
1,206112,-3493,2426,-608,-139,-215,-95,-151,209,-207
1,206117,-3493,2426,-608,-139,-215,-95,-151,209,-207
1,206123,-3493,2426,-608,-139,-215,-95,-151,209,-207
1,206128,-3495,2424,-609,-132,-229,-90,-151,209,-207
1,206133,-3495,2424,-609,-132,-229,-90,-151,209,-207
1,206138,-3495,2424,-609,-132,-229,-90,-151,209,-207
1,206143,-3496,2428,-611,-131,-228,-91,-151,209,-207
1,206149,-3496,2428,-611,-131,-228,-91,-151,209,-207
1,206154,-3496,2428,-611,-131,-228,-91,-151,209,-207
1,206159,-3496,2428,-611,-131,-228,-91,-151,209,-207
1,206164,-3494,2429,-611,-126,-226,-97,-151,209,-207
1,206171,-3494,2429,-611,-126,-226,-97,-151,209,-207
1,206176,-3494,2429,-611,-126,-226,-97,-151,209,-207
1,206182,-3494,2429,-611,-126,-226,-97,-151,209,-207
1,206187,-3495,2427,-611,-134,-222,-97,-151,209,-207
1,206193,-3495,2427,-611,-134,-222,-97,-151,209,-207
1,206198,-3495,2427,-611,-134,-222,-97,-151,209,-207
1,206204,-3494,2426,-606,-133,-226,-101,-151,209,-207
1,206210,-3494,2426,-606,-133,-226,-101,-151,209,-207
1,206216,-3494,2426,-606,-133,-226,-101,-151,209,-207
1,206221,-3494,2426,-606,-133,-226,-101,-151,209,-207
1,206226,-3497,2427,-609,-138,-228,-93,-155,215,-203
1,206232,-3497,2427,-609,-138,-228,-93,-155,215,-203
1,206238,-3497,2427,-609,-138,-228,-93,-155,215,-203
1,206243,-3497,2427,-609,-138,-228,-93,-155,215,-203
1,206248,-3497,2429,-610,-141,-231,-96,-155,215,-203
1,206255,-3497,2429,-610,-141,-231,-96,-155,215,-203
1,206260,-3497,2429,-610,-141,-231,-96,-155,215,-203
1,206265,-3492,2427,-610,-137,-221,-91,-155,215,-203
1,206271,-3492,2427,-610,-137,-221,-91,-155,215,-203
1,206276,-3492,2427,-610,-137,-221,-91,-155,215,-203
1,206282,-3492,2427,-610,-137,-221,-91,-155,215,-203
1,206287,-3495,2424,-606,-136,-220,-91,-155,215,-203
1,206294,-3495,2424,-606,-136,-220,-91,-155,215,-203
1,206299,-3495,2424,-606,-136,-220,-91,-155,215,-203
1,206305,-3495,2424,-609,-131,-226,-95,-155,215,-203
1,206309,-3495,2424,-609,-131,-226,-95,-155,215,-203
1,206315,-3495,2424,-609,-131,-226,-95,-155,215,-203
1,206320,-3495,2424,-609,-131,-226,-95,-155,215,-203
1,206325,-3494,2425,-612,-124,-223,-96,-155,215,-203
1,206330,-3494,2425,-612,-124,-223,-96,-155,215,-203
1,206336,-3494,2425,-612,-124,-223,-96,-155,215,-203
1,206342,-3494,2425,-612,-124,-223,-96,-155,215,-203
1,206348,-3496,2426,-610,-129,-226,-91,-151,211,-213
1,206353,-3496,2426,-610,-129,-226,-91,-151,211,-213
1,206358,-3496,2426,-610,-129,-226,-91,-151,211,-213
1,206364,-3496,2431,-609,-135,-225,-92,-151,211,-213
1,206369,-3496,2431,-609,-135,-225,-92,-151,211,-213
1,206374,-3496,2431,-609,-135,-225,-92,-151,211,-213
1,206380,-3496,2431,-609,-135,-225,-92,-151,211,-213
1,206386,-3496,2426,-606,-129,-228,-88,-151,211,-213
1,206391,-3496,2426,-606,-129,-228,-88,-151,211,-213
1,206397,-3496,2426,-606,-129,-228,-88,-151,211,-213
1,206402,-3496,2426,-606,-129,-228,-88,-151,211,-213
1,206408,-3494,2427,-606,-132,-231,-91,-151,211,-213
1,206413,-3494,2427,-606,-132,-231,-91,-151,211,-213
1,206418,-3494,2427,-606,-132,-231,-91,-151,211,-213
1,206424,-3495,2429,-611,-135,-229,-99,-151,211,-213
1,206430,-3495,2429,-611,-135,-229,-99,-151,211,-213
1,206435,-3495,2429,-611,-135,-229,-99,-151,211,-213
1,206441,-3495,2429,-611,-135,-229,-99,-151,211,-213
1,206446,-3493,2429,-611,-132,-227,-97,-151,211,-213
1,206451,-3493,2429,-611,-132,-227,-97,-151,211,-213
1,206457,-3493,2429,-611,-132,-227,-97,-151,211,-213
1,206462,-3493,2429,-611,-132,-227,-97,-151,211,-213
1,206468,-3495,2428,-605,-131,-229,-92,-150,214,-202
1,206474,-3495,2428,-605,-131,-229,-92,-150,214,-202
1,206479,-3495,2428,-605,-131,-229,-92,-150,214,-202
1,206485,-3495,2428,-606,-130,-231,-95,-150,214,-202
1,206490,-3495,2428,-606,-130,-231,-95,-150,214,-202
1,206495,-3495,2428,-606,-130,-231,-95,-150,214,-202
1,206501,-3495,2428,-606,-130,-231,-95,-150,214,-202
1,206507,-3495,2429,-607,-133,-224,-101,-150,214,-202
1,206512,-3495,2429,-607,-133,-224,-101,-150,214,-202
1,206517,-3495,2429,-607,-133,-224,-101,-150,214,-202
1,206522,-3495,2429,-607,-133,-224,-101,-150,214,-202
1,206528,-3499,2427,-607,-132,-219,-101,-150,214,-202
1,206533,-3499,2427,-607,-132,-219,-101,-150,214,-202
1,206539,-3499,2427,-607,-132,-219,-101,-150,214,-202
1,206545,-3498,2425,-608,-127,-221,-95,-150,214,-202
1,206551,-3498,2425,-608,-127,-221,-95,-150,214,-202
1,206557,-3498,2425,-608,-127,-221,-95,-150,214,-202
1,206562,-3498,2425,-608,-127,-221,-95,-150,214,-202
1,206568,-3497,2428,-611,-132,-220,-98,-150,214,-202
1,206573,-3497,2428,-611,-132,-220,-98,-150,214,-202
1,206578,-3497,2428,-611,-132,-220,-98,-150,214,-202
1,206583,-3494,2427,-607,-130,-225,-98,-150,214,-202
1,206588,-3494,2427,-607,-130,-225,-98,-150,214,-202
1,206595,-3494,2427,-607,-130,-225,-98,-150,214,-202
1,206600,-3494,2427,-607,-130,-225,-98,-150,214,-202
1,206605,-3493,2430,-609,-126,-227,-95,-157,213,-207
1,206611,-3493,2430,-609,-126,-227,-95,-157,213,-207
1,206616,-3493,2430,-609,-126,-227,-95,-157,213,-207
1,206621,-3493,2430,-609,-126,-227,-95,-157,213,-207
1,206627,-3494,2427,-610,-135,-231,-89,-157,213,-207
1,206632,-3494,2427,-610,-135,-231,-89,-157,213,-207
1,206639,-3494,2427,-610,-135,-231,-89,-157,213,-207
1,206644,-3494,2428,-615,-135,-225,-98,-157,213,-207
1,206649,-3494,2428,-615,-135,-225,-98,-157,213,-207
1,206654,-3494,2428,-615,-135,-225,-98,-157,213,-207
1,206660,-3494,2428,-615,-135,-225,-98,-157,213,-207
1,206665,-3495,2429,-610,-135,-225,-93,-157,213,-207
1,206670,-3495,2429,-610,-135,-225,-93,-157,213,-207
1,206675,-3495,2429,-610,-135,-225,-93,-157,213,-207
1,206682,-3495,2429,-610,-135,-225,-93,-157,213,-207
1,206688,-3495,2428,-611,-140,-231,-93,-157,213,-207
1,206693,-3495,2428,-611,-140,-231,-93,-157,213,-207
1,206699,-3495,2428,-611,-140,-231,-93,-157,213,-207
1,206704,-3495,2430,-611,-140,-232,-89,-157,213,-207
1,206710,-3495,2430,-611,-140,-232,-89,-157,213,-207
1,206715,-3495,2430,-611,-140,-232,-89,-157,213,-207
1,206722,-3495,2430,-611,-140,-232,-89,-157,213,-207
1,206728,-3495,2430,-606,-132,-230,-95,-151,205,-205
1,206733,-3495,2430,-606,-132,-230,-95,-151,205,-205
1,206739,-3495,2430,-606,-132,-230,-95,-151,205,-205
1,206744,-3496,2429,-611,-132,-224,-94,-151,205,-205
1,206749,-3496,2429,-611,-132,-224,-94,-151,205,-205
1,206754,-3496,2429,-611,-132,-224,-94,-151,205,-205
1,206760,-3496,2429,-611,-132,-224,-94,-151,205,-205
1,206766,-3497,2425,-606,-136,-222,-99,-151,205,-205
1,206771,-3497,2425,-606,-136,-222,-99,-151,205,-205
1,206777,-3497,2425,-606,-136,-222,-99,-151,205,-205
1,206783,-3497,2425,-606,-136,-222,-99,-151,205,-205
1,206788,-3498,2427,-609,-124,-231,-100,-151,205,-205
1,206793,-3498,2427,-609,-124,-231,-100,-151,205,-205
1,206799,-3498,2427,-609,-124,-231,-100,-151,205,-205
1,206804,-3496,2425,-608,-126,-227,-97,-151,205,-205
1,206810,-3496,2425,-608,-126,-227,-97,-151,205,-205
1,206816,-3496,2425,-608,-126,-227,-97,-151,205,-205
1,206821,-3496,2425,-608,-126,-227,-97,-151,205,-205
1,206827,-3494,2427,-605,-132,-227,-90,-151,205,-205
1,206832,-3494,2427,-605,-132,-227,-90,-151,205,-205
1,206837,-3494,2427,-605,-132,-227,-90,-151,205,-205
1,206842,-3494,2427,-605,-132,-227,-90,-151,205,-205
1,206848,-3496,2427,-606,-138,-225,-93,-154,210,-210
1,206854,-3496,2427,-606,-138,-225,-93,-154,210,-210
1,206859,-3496,2427,-606,-138,-225,-93,-154,210,-210
1,206864,-3496,2426,-609,-133,-218,-99,-154,210,-210
1,206870,-3496,2426,-609,-133,-218,-99,-154,210,-210
1,206875,-3496,2426,-609,-133,-218,-99,-154,210,-210
1,206881,-3496,2426,-609,-133,-218,-99,-154,210,-210
1,206886,-3493,2426,-610,-137,-222,-104,-154,210,-210
1,206892,-3493,2426,-610,-137,-222,-104,-154,210,-210
1,206898,-3493,2426,-610,-137,-222,-104,-154,210,-210
1,206903,-3493,2426,-610,-137,-222,-104,-154,210,-210
1,206908,-3494,2426,-608,-135,-221,-97,-154,210,-210
1,206914,-3494,2426,-608,-135,-221,-97,-154,210,-210
1,206919,-3494,2426,-608,-135,-221,-97,-154,210,-210
1,206925,-3494,2426,-612,-130,-229,-98,-154,210,-210
1,206930,-3494,2426,-612,-130,-229,-98,-154,210,-210
1,206936,-3494,2426,-612,-130,-229,-98,-154,210,-210
1,206941,-3494,2426,-612,-130,-229,-98,-154,210,-210
1,206947,-3494,2425,-607,-136,-234,-89,-154,210,-210
1,206952,-3494,2425,-607,-136,-234,-89,-154,210,-210
1,206957,-3494,2425,-607,-136,-234,-89,-154,210,-210
1,206963,-3494,2425,-607,-136,-234,-89,-154,210,-210
1,206968,-3494,2427,-611,-133,-237,-89,-156,212,-212
1,206973,-3494,2427,-611,-133,-237,-89,-156,212,-212
1,206980,-3494,2427,-611,-133,-237,-89,-156,212,-212
1,206986,-3495,2428,-608,-138,-227,-94,-156,212,-212
1,206991,-3495,2428,-608,-138,-227,-94,-156,212,-212
1,206996,-3495,2428,-608,-138,-227,-94,-156,212,-212
1,207002,-3495,2428,-608,-138,-227,-94,-156,212,-212
1,207007,-3496,2428,-608,-141,-232,-93,-156,212,-212
1,207013,-3496,2428,-608,-141,-232,-93,-156,212,-212
1,207019,-3496,2428,-608,-141,-232,-93,-156,212,-212
1,207025,-3496,2429,-611,-133,-225,-96,-156,212,-212
1,207030,-3496,2429,-611,-133,-225,-96,-156,212,-212
1,207035,-3496,2429,-611,-133,-225,-96,-156,212,-212
1,207041,-3496,2429,-611,-133,-225,-96,-156,212,-212
1,207046,-3496,2429,-612,-125,-218,-100,-156,212,-212
1,207051,-3496,2429,-612,-125,-218,-100,-156,212,-212
1,207057,-3496,2429,-612,-125,-218,-100,-156,212,-212
1,207062,-3496,2429,-612,-125,-218,-100,-156,212,-212
1,207068,-3496,2428,-611,-134,-229,-96,-156,212,-212
1,207073,-3496,2428,-611,-134,-229,-96,-156,212,-212
1,207078,-3496,2428,-611,-134,-229,-96,-156,212,-212
1,207084,-3496,2428,-611,-134,-229,-96,-156,212,-212
1,207089,-3496,2429,-603,-135,-223,-97,-156,206,-208
1,207094,-3496,2429,-603,-135,-223,-97,-156,206,-208
1,207099,-3496,2429,-603,-135,-223,-97,-156,206,-208
1,207106,-3496,2427,-603,-133,-233,-95,-156,206,-208
1,207111,-3496,2427,-603,-133,-233,-95,-156,206,-208
1,207117,-3496,2427,-603,-133,-233,-95,-156,206,-208
1,207122,-3496,2427,-603,-133,-233,-95,-156,206,-208
1,207127,-3496,2427,-603,-134,-228,-94,-156,206,-208
1,207133,-3496,2427,-603,-134,-228,-94,-156,206,-208
1,207138,-3496,2427,-603,-134,-228,-94,-156,206,-208
1,207144,-3495,2430,-609,-136,-225,-93,-156,206,-208
1,207150,-3495,2430,-609,-136,-225,-93,-156,206,-208
1,207155,-3495,2430,-609,-136,-225,-93,-156,206,-208
1,207160,-3495,2430,-609,-136,-225,-93,-156,206,-208
1,207165,-3493,2428,-608,-131,-217,-89,-156,206,-208
1,207171,-3493,2428,-608,-131,-217,-89,-156,206,-208
1,207176,-3493,2428,-608,-131,-217,-89,-156,206,-208
1,207181,-3493,2428,-608,-131,-217,-89,-156,206,-208
1,207187,-3494,2429,-612,-131,-222,-85,-156,206,-208
1,207194,-3494,2429,-612,-131,-222,-85,-156,206,-208
1,207199,-3494,2429,-612,-131,-222,-85,-156,206,-208
1,207204,-3497,2427,-609,-132,-228,-99,-156,206,-208
1,207210,-3497,2427,-609,-132,-228,-99,-156,206,-208
1,207215,-3497,2427,-609,-132,-228,-99,-156,206,-208
1,207221,-3497,2427,-609,-132,-228,-99,-156,206,-208
1,207226,-3496,2428,-604,-124,-226,-95,-150,210,-204
1,207232,-3496,2428,-604,-124,-226,-95,-150,210,-204
1,207238,-3496,2428,-604,-124,-226,-95,-150,210,-204
1,207243,-3496,2428,-604,-124,-226,-95,-150,210,-204
1,207248,-3499,2428,-608,-127,-223,-95,-150,210,-204
1,207254,-3499,2428,-608,-127,-223,-95,-150,210,-204
1,207259,-3499,2428,-608,-127,-223,-95,-150,210,-204
1,207264,-3494,2429,-607,-122,-229,-93,-150,210,-204
1,207270,-3494,2429,-607,-122,-229,-93,-150,210,-204
1,207276,-3494,2429,-607,-122,-229,-93,-150,210,-204
1,207281,-3494,2429,-607,-122,-229,-93,-150,210,-204
1,207286,-3495,2429,-612,-127,-220,-96,-150,210,-204
1,207292,-3495,2429,-612,-127,-220,-96,-150,210,-204
1,207297,-3495,2429,-612,-127,-220,-96,-150,210,-204
1,207302,-3495,2429,-612,-127,-220,-96,-150,210,-204
1,207307,-3495,2429,-616,-138,-224,-101,-150,210,-204
1,207313,-3495,2429,-616,-138,-224,-101,-150,210,-204
1,207319,-3495,2429,-616,-138,-224,-101,-150,210,-204
1,207324,-3495,2429,-616,-138,-224,-101,-150,210,-204
1,207329,-3500,2427,-612,-135,-224,-97,-150,210,-204
1,207335,-3500,2427,-612,-135,-224,-97,-150,210,-204
1,207340,-3500,2427,-612,-135,-224,-97,-150,210,-204
1,207345,-3496,2428,-609,-138,-219,-98,-156,206,-210
1,207351,-3496,2428,-609,-138,-219,-98,-156,206,-210
1,207356,-3496,2428,-609,-138,-219,-98,-156,206,-210
1,207362,-3496,2428,-609,-138,-219,-98,-156,206,-210
1,207367,-3495,2426,-607,-134,-229,-98,-156,206,-210
1,207373,-3495,2426,-607,-134,-229,-98,-156,206,-210
1,207378,-3495,2426,-607,-134,-229,-98,-156,206,-210
1,207383,-3495,2426,-607,-134,-229,-98,-156,206,-210
1,207389,-3498,2426,-611,-137,-220,-99,-156,206,-210
1,207394,-3498,2426,-611,-137,-220,-99,-156,206,-210
1,207399,-3498,2426,-611,-137,-220,-99,-156,206,-210
1,207405,-3497,2426,-608,-132,-224,-95,-156,206,-210
1,207411,-3497,2426,-608,-132,-224,-95,-156,206,-210
1,207416,-3497,2426,-608,-132,-224,-95,-156,206,-210
1,207422,-3497,2426,-608,-132,-224,-95,-156,206,-210
1,207427,-3495,2428,-605,-134,-225,-95,-156,206,-210
1,207432,-3495,2428,-605,-134,-225,-95,-156,206,-210
1,207437,-3495,2428,-605,-134,-225,-95,-156,206,-210
1,207442,-3495,2428,-605,-134,-225,-95,-156,206,-210
1,207448,-3498,2428,-607,-129,-224,-106,-156,206,-210
1,207454,-3498,2428,-607,-129,-224,-106,-156,206,-210
1,207459,-3498,2428,-607,-129,-224,-106,-156,206,-210
1,207464,-3498,2428,-607,-129,-224,-106,-156,206,-210
1,207469,-3496,2427,-606,-131,-221,-103,-152,212,-214
1,207474,-3496,2427,-606,-131,-221,-103,-152,212,-214
1,207480,-3496,2427,-606,-131,-221,-103,-152,212,-214
1,207485,-3493,2431,-607,-133,-228,-103,-152,212,-214
1,207491,-3493,2431,-607,-133,-228,-103,-152,212,-214
1,207497,-3493,2431,-607,-133,-228,-103,-152,212,-214
1,207502,-3493,2431,-607,-133,-228,-103,-152,212,-214
1,207507,-3494,2428,-604,-137,-225,-102,-152,212,-214
1,207513,-3494,2428,-604,-137,-225,-102,-152,212,-214
1,207518,-3494,2428,-604,-137,-225,-102,-152,212,-214
1,207524,-3494,2428,-604,-137,-225,-102,-152,212,-214
1,207529,-3495,2431,-609,-133,-222,-98,-152,212,-214
1,207534,-3495,2431,-609,-133,-222,-98,-152,212,-214
1,207540,-3495,2431,-609,-133,-222,-98,-152,212,-214
1,207545,-3496,2425,-607,-135,-226,-101,-152,212,-214
1,207550,-3496,2425,-607,-135,-226,-101,-152,212,-214
1,207555,-3496,2425,-607,-135,-226,-101,-152,212,-214
1,207561,-3496,2425,-607,-135,-226,-101,-152,212,-214
1,207566,-3494,2427,-611,-131,-220,-99,-152,212,-214
1,207572,-3494,2427,-611,-131,-220,-99,-152,212,-214
1,207578,-3494,2427,-611,-131,-220,-99,-152,212,-214
1,207583,-3494,2427,-611,-131,-220,-99,-152,212,-214
1,207589,-3497,2428,-606,-131,-215,-98,-157,213,-209
1,207594,-3497,2428,-606,-131,-215,-98,-157,213,-209
1,207600,-3497,2428,-606,-131,-215,-98,-157,213,-209
1,207605,-3495,2427,-604,-133,-223,-96,-157,213,-209
1,207610,-3495,2427,-604,-133,-223,-96,-157,213,-209
1,207617,-3495,2427,-604,-133,-223,-96,-157,213,-209
1,207622,-3495,2427,-604,-133,-223,-96,-157,213,-209
1,207627,-3495,2426,-612,-135,-221,-99,-157,213,-209
1,207633,-3495,2426,-612,-135,-221,-99,-157,213,-209
1,207639,-3495,2426,-612,-135,-221,-99,-157,213,-209
1,207644,-3495,2426,-612,-135,-221,-99,-157,213,-209
1,207650,-3498,2426,-609,-135,-222,-91,-157,213,-209
1,207656,-3498,2426,-609,-135,-222,-91,-157,213,-209
1,207663,-3498,2426,-609,-135,-222,-91,-157,213,-209
1,207668,-3496,2427,-611,-135,-225,-92,-157,213,-209
1,207674,-3496,2427,-611,-135,-225,-92,-157,213,-209
1,207679,-3496,2427,-611,-135,-225,-92,-157,213,-209
1,207684,-3496,2427,-611,-135,-225,-92,-157,213,-209
1,207690,-3494,2429,-610,-138,-234,-91,-157,213,-209
1,207695,-3494,2429,-610,-138,-234,-91,-157,213,-209
1,207700,-3494,2429,-610,-138,-234,-91,-157,213,-209
1,207707,-3496,2429,-609,-130,-224,-94,-152,208,-200
1,207712,-3496,2429,-609,-130,-224,-94,-152,208,-200
1,207717,-3496,2429,-609,-130,-224,-94,-152,208,-200
1,207722,-3496,2429,-609,-130,-224,-94,-152,208,-200
1,207728,-3495,2428,-608,-128,-226,-101,-152,208,-200
1,207733,-3495,2428,-608,-128,-226,-101,-152,208,-200
1,207739,-3495,2428,-608,-128,-226,-101,-152,208,-200
1,207745,-3495,2431,-603,-130,-228,-93,-152,208,-200
1,207751,-3495,2431,-603,-130,-228,-93,-152,208,-200
1,207756,-3495,2431,-603,-130,-228,-93,-152,208,-200
1,207761,-3495,2431,-603,-130,-228,-93,-152,208,-200
1,207766,-3493,2430,-604,-132,-227,-94,-152,208,-200
1,207772,-3493,2430,-604,-132,-227,-94,-152,208,-200
1,207777,-3493,2430,-604,-132,-227,-94,-152,208,-200
1,207783,-3493,2430,-604,-132,-227,-94,-152,208,-200
1,207789,-3494,2428,-608,-128,-220,-94,-152,208,-200
1,207794,-3494,2428,-608,-128,-220,-94,-152,208,-200
1,207799,-3494,2428,-608,-128,-220,-94,-152,208,-200
1,207805,-3494,2428,-608,-128,-220,-94,-152,208,-200
1,207810,-3495,2426,-611,-127,-225,-92,-152,208,-200
1,207816,-3495,2426,-611,-127,-225,-92,-152,208,-200
1,207821,-3495,2426,-611,-127,-225,-92,-152,208,-200
1,207827,-3494,2429,-607,-133,-229,-94,-146,212,-206
1,207833,-3494,2429,-607,-133,-229,-94,-146,212,-206
1,207839,-3494,2429,-607,-133,-229,-94,-146,212,-206
1,207845,-3494,2429,-607,-133,-229,-94,-146,212,-206
1,207850,-3495,2429,-603,-133,-221,-96,-146,212,-206
1,207855,-3495,2429,-603,-133,-221,-96,-146,212,-206
1,207860,-3495,2429,-603,-133,-221,-96,-146,212,-206
1,207866,-3495,2428,-607,-132,-222,-89,-146,212,-206
1,207872,-3495,2428,-607,-132,-222,-89,-146,212,-206
1,207877,-3495,2428,-607,-132,-222,-89,-146,212,-206
1,207883,-3495,2428,-607,-132,-222,-89,-146,212,-206
1,207888,-3494,2428,-608,-129,-231,-88,-146,212,-206
1,207894,-3494,2428,-608,-129,-231,-88,-146,212,-206
1,207899,-3494,2428,-608,-129,-231,-88,-146,212,-206
1,207905,-3495,2424,-612,-129,-224,-95,-146,212,-206
1,207910,-3495,2424,-612,-129,-224,-95,-146,212,-206
1,207917,-3495,2424,-612,-129,-224,-95,-146,212,-206
1,207922,-3495,2424,-612,-129,-224,-95,-146,212,-206
1,207928,-3493,2427,-604,-134,-229,-96,-146,212,-206
1,207933,-3493,2427,-604,-134,-229,-96,-146,212,-206
1,207939,-3493,2427,-604,-134,-229,-96,-146,212,-206
1,207944,-3493,2427,-604,-134,-229,-96,-146,212,-206
1,207949,-3494,2426,-609,-135,-230,-101,-146,212,-206
1,207955,-3494,2426,-609,-135,-230,-101,-146,212,-206
1,207961,-3494,2426,-609,-135,-230,-101,-146,212,-206
1,207966,-3499,2429,-605,-131,-221,-103,-161,215,-209
1,207972,-3499,2429,-605,-131,-221,-103,-161,215,-209
1,207977,-3499,2429,-605,-131,-221,-103,-161,215,-209
1,207982,-3499,2429,-605,-131,-221,-103,-161,215,-209
1,207987,-3495,2426,-606,-128,-222,-96,-161,215,-209
1,207993,-3495,2426,-606,-128,-222,-96,-161,215,-209
1,207998,-3495,2426,-606,-128,-222,-96,-161,215,-209
1,208005,-3495,2426,-606,-128,-222,-96,-161,215,-209
1,208011,-3497,2428,-604,-132,-224,-91,-161,215,-209
1,208016,-3497,2428,-604,-132,-224,-91,-161,215,-209
1,208021,-3497,2428,-604,-132,-224,-91,-161,215,-209
1,208026,-3494,2424,-612,-136,-230,-91,-161,215,-209
1,208032,-3494,2424,-612,-136,-230,-91,-161,215,-209
1,208037,-3494,2424,-612,-136,-230,-91,-161,215,-209
1,208043,-3494,2424,-612,-136,-230,-91,-161,215,-209
1,208049,-3495,2428,-609,-132,-220,-92,-161,215,-209
1,208054,-3495,2428,-609,-132,-220,-92,-161,215,-209
1,208059,-3495,2428,-609,-132,-220,-92,-161,215,-209
1,208065,-3495,2428,-609,-132,-220,-92,-161,215,-209
1,208070,-3496,2428,-610,-131,-220,-91,-161,215,-209
1,208075,-3496,2428,-610,-131,-220,-91,-161,215,-209
1,208081,-3496,2428,-610,-131,-220,-91,-161,215,-209
1,208087,-3497,2428,-603,-129,-219,-98,-155,215,-207
1,208092,-3497,2428,-603,-129,-219,-98,-155,215,-207
1,208098,-3497,2428,-603,-129,-219,-98,-155,215,-207
1,208104,-3497,2428,-603,-129,-219,-98,-155,215,-207
1,208109,-3495,2428,-608,-132,-216,-98,-155,215,-207
1,208114,-3495,2428,-608,-132,-216,-98,-155,215,-207
1,208119,-3495,2428,-608,-132,-216,-98,-155,215,-207
1,208125,-3497,2426,-614,-139,-222,-96,-155,215,-207
1,208131,-3497,2426,-614,-139,-222,-96,-155,215,-207
1,208136,-3497,2426,-614,-139,-222,-96,-155,215,-207
1,208141,-3497,2426,-614,-139,-222,-96,-155,215,-207
1,208147,-3495,2428,-609,-138,-220,-91,-155,215,-207
1,208153,-3495,2428,-609,-138,-220,-91,-155,215,-207
1,208158,-3495,2428,-609,-138,-220,-91,-155,215,-207
1,208163,-3495,2428,-609,-138,-220,-91,-155,215,-207
1,208169,-3497,2428,-611,-137,-221,-95,-155,215,-207
1,208175,-3497,2428,-611,-137,-221,-95,-155,215,-207
1,208180,-3497,2428,-611,-137,-221,-95,-155,215,-207
1,208186,-3494,2429,-609,-136,-213,-96,-155,215,-207
1,208191,-3494,2429,-609,-136,-213,-96,-155,215,-207
1,208196,-3494,2429,-609,-136,-213,-96,-155,215,-207
1,208202,-3494,2429,-609,-136,-213,-96,-155,215,-207
1,208207,-3495,2427,-607,-132,-229,-101,-152,214,-204
1,208212,-3495,2427,-607,-132,-229,-101,-152,214,-204
1,208219,-3495,2427,-607,-132,-229,-101,-152,214,-204
1,208224,-3495,2427,-607,-132,-229,-101,-152,214,-204
1,208229,-3497,2425,-609,-129,-224,-100,-152,214,-204
1,208234,-3497,2425,-609,-129,-224,-100,-152,214,-204
1,208240,-3497,2425,-609,-129,-224,-100,-152,214,-204
1,208245,-3497,2425,-609,-129,-224,-100,-152,214,-204
1,208250,-3494,2428,-607,-136,-223,-98,-152,214,-204
1,208257,-3494,2428,-607,-136,-223,-98,-152,214,-204
1,208262,-3494,2428,-607,-136,-223,-98,-152,214,-204
1,208267,-3492,2430,-613,-142,-228,-102,-152,214,-204
1,208273,-3492,2430,-613,-142,-228,-102,-152,214,-204
1,208278,-3492,2430,-613,-142,-228,-102,-152,214,-204
1,208283,-3492,2430,-613,-142,-228,-102,-152,214,-204
1,208289,-3492,2426,-609,-136,-225,-98,-152,214,-204
1,208294,-3492,2426,-609,-136,-225,-98,-152,214,-204
1,208301,-3492,2426,-609,-136,-225,-98,-152,214,-204
1,208306,-3496,2429,-609,-135,-227,-105,-152,214,-204
1,208311,-3496,2429,-609,-135,-227,-105,-152,214,-204
1,208316,-3496,2429,-609,-135,-227,-105,-152,214,-204
1,208322,-3496,2429,-609,-135,-227,-105,-152,214,-204
1,208327,-3493,2427,-607,-133,-227,-96,-161,213,-209
1,208333,-3493,2427,-607,-133,-227,-96,-161,213,-209
1,208338,-3493,2427,-607,-133,-227,-96,-161,213,-209
1,208344,-3493,2427,-607,-133,-227,-96,-161,213,-209
1,208350,-3494,2426,-608,-134,-224,-101,-161,213,-209
1,208355,-3494,2426,-608,-134,-224,-101,-161,213,-209
1,208360,-3494,2426,-608,-134,-224,-101,-161,213,-209
1,208366,-3498,2427,-609,-128,-228,-99,-161,213,-209
1,208372,-3498,2427,-609,-128,-228,-99,-161,213,-209
1,208377,-3498,2427,-609,-128,-228,-99,-161,213,-209
1,208382,-3498,2427,-609,-128,-228,-99,-161,213,-209
1,208389,-3496,2426,-611,-137,-229,-101,-161,213,-209
1,208395,-3496,2426,-611,-137,-229,-101,-161,213,-209
1,208400,-3496,2426,-611,-137,-229,-101,-161,213,-209
1,208405,-3496,2426,-611,-137,-229,-101,-161,213,-209
1,208411,-3493,2428,-609,-131,-224,-92,-161,213,-209
1,208416,-3493,2428,-609,-131,-224,-92,-161,213,-209
1,208422,-3493,2428,-609,-131,-224,-92,-161,213,-209
1,208429,-3496,2428,-611,-131,-219,-98,-161,213,-209
1,208434,-3496,2428,-611,-131,-219,-98,-161,213,-209
1,208440,-3496,2428,-611,-131,-219,-98,-161,213,-209
1,208446,-3496,2428,-610,-135,-221,-99,-161,213,-209
1,208451,-3496,2428,-610,-135,-221,-99,-152,212,-206
1,208457,-3496,2428,-610,-135,-221,-99,-152,212,-206
1,208462,-3496,2428,-610,-135,-221,-99,-152,212,-206
1,208468,-3493,2428,-606,-131,-223,-93,-152,212,-206
1,208473,-3493,2428,-606,-131,-223,-93,-152,212,-206
1,208479,-3493,2428,-606,-131,-223,-93,-152,212,-206
1,208485,-3493,2428,-606,-131,-223,-93,-152,212,-206
1,208490,-3494,2425,-611,-131,-219,-93,-152,212,-206
1,208495,-3494,2425,-611,-131,-219,-93,-152,212,-206
1,208500,-3494,2425,-611,-131,-219,-93,-152,212,-206
1,208505,-3494,2425,-611,-131,-219,-93,-152,212,-206
1,208512,-3494,2425,-611,-131,-219,-93,-152,212,-206
1,208517,-3494,2425,-611,-131,-219,-93,-152,212,-206
1,208522,-3494,2425,-611,-131,-219,-93,-152,212,-206
1,208527,-3499,2426,-608,-135,-231,-101,-152,212,-206
1,208532,-3499,2426,-608,-135,-231,-101,-152,212,-206
1,208537,-3499,2426,-608,-135,-231,-101,-152,212,-206
1,208542,-3499,2426,-608,-135,-231,-101,-152,212,-206
1,208547,-3497,2426,-606,-127,-219,-99,-152,212,-206
1,208553,-3497,2426,-606,-127,-219,-99,-152,212,-206
1,208559,-3497,2426,-606,-127,-219,-99,-152,212,-206
1,208564,-3497,2426,-606,-127,-219,-99,-152,212,-206
1,208570,-3497,2427,-603,-133,-227,-94,-152,212,-206
1,208575,-3497,2427,-603,-133,-227,-94,-152,212,-206
1,208580,-3497,2427,-603,-133,-227,-94,-152,212,-206
1,208586,-3496,2427,-609,-133,-226,-104,-157,209,-207
1,208591,-3496,2427,-609,-133,-226,-104,-157,209,-207
1,208598,-3496,2427,-609,-133,-226,-104,-157,209,-207
1,208602,-3496,2427,-609,-133,-226,-104,-157,209,-207
1,208607,-3497,2427,-609,-134,-218,-97,-157,209,-207
1,208612,-3497,2427,-609,-134,-218,-97,-157,209,-207
1,208616,-3497,2427,-609,-134,-218,-97,-157,209,-207
1,208620,-3497,2427,-609,-134,-218,-97,-157,209,-207
1,208625,-3497,2427,-609,-134,-218,-97,-157,209,-207
1,208630,-3498,2429,-610,-137,-219,-95,-157,209,-207
1,208634,-3498,2429,-610,-137,-219,-95,-157,209,-207
1,208640,-3498,2429,-610,-137,-219,-95,-157,209,-207
1,208646,-3495,2427,-610,-132,-221,-94,-157,209,-207
1,208651,-3495,2427,-610,-132,-221,-94,-157,209,-207
1,208656,-3495,2427,-610,-132,-221,-94,-157,209,-207
1,208661,-3495,2427,-610,-132,-221,-94,-157,209,-207
1,208666,-3493,2426,-611,-133,-222,-99,-157,209,-207
1,208672,-3493,2426,-611,-133,-222,-99,-157,209,-207
1,208676,-3493,2426,-611,-133,-222,-99,-157,209,-207
1,208683,-3493,2426,-611,-133,-222,-99,-157,209,-207
1,208688,-3494,2427,-608,-130,-223,-99,-157,209,-207
1,208694,-3494,2427,-608,-130,-223,-99,-157,209,-207
1,208700,-3494,2427,-608,-130,-223,-99,-157,209,-207
1,208705,-3494,2427,-608,-130,-223,-99,-157,209,-207
1,208710,-3495,2426,-608,-131,-224,-99,-152,208,-208
1,208715,-3495,2426,-608,-131,-224,-99,-152,208,-208
1,208721,-3495,2426,-608,-131,-224,-99,-152,208,-208
1,208728,-3497,2428,-610,-133,-221,-95,-152,208,-208
1,208733,-3497,2428,-610,-133,-221,-95,-152,208,-208
1,208738,-3497,2428,-610,-133,-221,-95,-152,208,-208
1,208743,-3497,2428,-610,-133,-221,-95,-152,208,-208
1,208749,-3496,2425,-606,-131,-220,-94,-152,208,-208
1,208754,-3496,2425,-606,-131,-220,-94,-152,208,-208
1,208760,-3496,2425,-606,-131,-220,-94,-152,208,-208
1,208765,-3496,2425,-606,-131,-220,-94,-152,208,-208
1,208772,-3493,2427,-609,-128,-220,-92,-152,208,-208
1,208777,-3493,2427,-609,-128,-220,-92,-152,208,-208
1,208783,-3493,2427,-609,-128,-220,-92,-152,208,-208
1,208789,-3496,2427,-610,-133,-226,-94,-152,208,-208
1,208794,-3496,2427,-610,-133,-226,-94,-152,208,-208
1,208799,-3496,2427,-610,-133,-226,-94,-152,208,-208
1,208805,-3496,2427,-610,-133,-226,-94,-152,208,-208
1,208811,-3499,2427,-608,-131,-220,-89,-152,208,-208
1,208817,-3499,2427,-608,-131,-220,-89,-152,208,-208
1,208822,-3499,2427,-608,-131,-220,-89,-152,208,-208
1,208828,-3497,2432,-605,-135,-218,-92,-159,203,-205
1,208833,-3497,2432,-605,-135,-218,-92,-159,203,-205
1,208838,-3497,2432,-605,-135,-218,-92,-159,203,-205
1,208843,-3497,2432,-605,-135,-218,-92,-159,203,-205
1,208849,-3496,2427,-606,-136,-222,-96,-159,203,-205
1,208855,-3496,2427,-606,-136,-222,-96,-159,203,-205
1,208861,-3496,2427,-606,-136,-222,-96,-159,203,-205
1,208866,-3495,2428,-610,-132,-222,-91,-159,203,-205
1,208872,-3495,2428,-610,-132,-222,-91,-159,203,-205
1,208877,-3495,2428,-610,-132,-222,-91,-159,203,-205
1,208883,-3495,2428,-610,-132,-222,-91,-159,203,-205
1,208889,-3495,2424,-611,-128,-232,-90,-159,203,-205
1,208894,-3495,2424,-611,-128,-232,-90,-159,203,-205
1,208901,-3495,2424,-611,-128,-232,-90,-159,203,-205
1,208906,-3495,2424,-611,-128,-232,-90,-159,203,-205
1,208911,-3497,2426,-608,-133,-221,-100,-159,203,-205
1,208916,-3497,2426,-608,-133,-221,-100,-159,203,-205
1,208921,-3497,2426,-608,-133,-221,-100,-159,203,-205
1,208927,-3494,2427,-607,-130,-217,-94,-159,203,-205
1,208932,-3494,2427,-607,-130,-217,-94,-159,203,-205
1,208939,-3494,2427,-607,-130,-217,-94,-159,203,-205
1,208944,-3494,2427,-607,-130,-217,-94,-159,203,-205
1,208949,-3496,2427,-604,-128,-220,-95,-154,212,-208
1,208954,-3496,2427,-604,-128,-220,-95,-154,212,-208
1,208960,-3496,2427,-604,-128,-220,-95,-154,212,-208
1,208965,-3496,2427,-604,-128,-220,-95,-154,212,-208
1,208971,-3496,2424,-607,-139,-222,-96,-154,212,-208
1,208976,-3496,2424,-607,-139,-222,-96,-154,212,-208
1,208983,-3496,2424,-607,-139,-222,-96,-154,212,-208
1,208989,-3495,2429,-613,-140,-222,-100,-154,212,-208
1,208994,-3495,2429,-613,-140,-222,-100,-154,212,-208
1,209000,-3495,2429,-613,-140,-222,-100,-154,212,-208
1,209005,-3495,2429,-613,-140,-222,-100,-154,212,-208
1,209011,-3495,2430,-609,-133,-223,-101,-154,212,-208
1,209016,-3495,2430,-609,-133,-223,-101,-154,212,-208
1,209021,-3495,2430,-609,-133,-223,-101,-154,212,-208
1,209028,-3495,2427,-606,-131,-224,-98,-154,212,-208
1,209033,-3495,2427,-606,-131,-224,-98,-154,212,-208
1,209038,-3495,2427,-606,-131,-224,-98,-154,212,-208
1,209044,-3495,2427,-606,-131,-224,-98,-154,212,-208
1,209049,-3495,2428,-607,-131,-223,-99,-154,212,-208
1,209054,-3495,2428,-607,-131,-223,-99,-154,212,-208
1,209060,-3495,2428,-607,-131,-223,-99,-154,212,-208
1,209065,-3495,2428,-607,-131,-223,-99,-154,212,-208
1,209072,-3494,2426,-606,-134,-224,-103,-146,210,-210
1,209077,-3494,2426,-606,-134,-224,-103,-146,210,-210
1,209083,-3494,2426,-606,-134,-224,-103,-146,210,-210
1,209088,-3493,2427,-611,-132,-228,-97,-146,210,-210
1,209094,-3493,2427,-611,-132,-228,-97,-146,210,-210
1,209099,-3493,2427,-611,-132,-228,-97,-146,210,-210
1,209104,-3493,2427,-611,-132,-228,-97,-146,210,-210
1,209110,-3493,2428,-606,-131,-228,-91,-146,210,-210
1,209116,-3493,2428,-606,-131,-228,-91,-146,210,-210
1,209121,-3493,2428,-606,-131,-228,-91,-146,210,-210
1,209127,-3495,2426,-609,-134,-221,-94,-146,210,-210
1,209132,-3495,2426,-609,-134,-221,-94,-146,210,-210
1,209138,-3495,2426,-609,-134,-221,-94,-146,210,-210
1,209143,-3495,2426,-609,-134,-221,-94,-146,210,-210
1,209149,-3497,2428,-610,-132,-225,-102,-146,210,-210
1,209155,-3497,2428,-610,-132,-225,-102,-146,210,-210
1,209160,-3497,2428,-610,-132,-225,-102,-146,210,-210
1,209166,-3497,2428,-610,-132,-225,-102,-146,210,-210
1,209171,-3493,2427,-610,-137,-226,-101,-146,210,-210
1,209177,-3493,2427,-610,-137,-226,-101,-146,210,-210
1,209182,-3493,2427,-610,-137,-226,-101,-146,210,-210
1,209187,-3493,2426,-608,-135,-229,-100,-153,217,-213
1,209192,-3493,2426,-608,-135,-229,-100,-153,217,-213
1,209199,-3493,2426,-608,-135,-229,-100,-153,217,-213
1,209204,-3493,2426,-608,-135,-229,-100,-153,217,-213
1,209209,-3496,2428,-604,-136,-224,-96,-153,217,-213
1,209215,-3496,2428,-604,-136,-224,-96,-153,217,-213
1,209220,-3496,2428,-604,-136,-224,-96,-153,217,-213
1,209226,-3496,2428,-604,-136,-224,-96,-153,217,-213
1,209231,-3496,2428,-606,-131,-221,-96,-153,217,-213
1,209236,-3496,2428,-606,-131,-221,-96,-153,217,-213
1,209243,-3496,2428,-606,-131,-221,-96,-153,217,-213
1,209248,-3494,2429,-613,-131,-222,-95,-153,217,-213
1,209254,-3494,2429,-613,-131,-222,-95,-153,217,-213
1,209259,-3494,2429,-613,-131,-222,-95,-153,217,-213
1,209263,-3494,2429,-613,-131,-222,-95,-153,217,-213
1,209269,-3497,2426,-606,-135,-217,-92,-153,217,-213
1,209274,-3497,2426,-606,-135,-217,-92,-153,217,-213
1,209280,-3497,2426,-606,-135,-217,-92,-153,217,-213
1,209285,-3497,2426,-606,-135,-217,-92,-153,217,-213
1,209291,-3497,2426,-608,-135,-223,-94,-153,217,-213
1,209296,-3497,2426,-608,-135,-223,-94,-153,217,-213
1,209302,-3497,2426,-608,-135,-223,-94,-153,217,-213
1,209307,-3494,2427,-612,-136,-229,-94,-153,217,-213
1,209312,-3494,2427,-612,-136,-229,-94,-153,217,-213
1,209317,-3494,2427,-612,-136,-229,-94,-153,217,-213
1,209323,-3494,2427,-612,-136,-229,-94,-153,217,-213
1,209329,-3492,2425,-607,-133,-229,-93,-148,208,-208
1,209334,-3492,2425,-607,-133,-229,-93,-148,208,-208
1,209340,-3492,2425,-607,-133,-229,-93,-148,208,-208
1,209346,-3492,2425,-607,-133,-229,-93,-148,208,-208
1,209351,-3497,2426,-611,-136,-227,-93,-148,208,-208
1,209358,-3497,2426,-611,-136,-227,-93,-148,208,-208
1,209363,-3497,2426,-611,-136,-227,-93,-148,208,-208
1,209369,-3495,2428,-611,-133,-225,-95,-148,208,-208
1,209375,-3495,2428,-611,-133,-225,-95,-148,208,-208
1,209380,-3495,2428,-611,-133,-225,-95,-148,208,-208
1,209385,-3495,2428,-611,-133,-225,-95,-148,208,-208
1,209390,-3496,2426,-610,-132,-230,-93,-148,208,-208
1,209396,-3496,2426,-610,-132,-230,-93,-148,208,-208
1,209401,-3496,2426,-610,-132,-230,-93,-148,208,-208
1,209405,-3496,2426,-610,-132,-230,-93,-148,208,-208
1,209411,-3494,2425,-612,-134,-226,-94,-148,208,-208
1,209417,-3494,2425,-612,-134,-226,-94,-148,208,-208
1,209422,-3494,2425,-612,-134,-226,-94,-148,208,-208
1,209428,-3496,2426,-612,-139,-219,-96,-148,208,-208
1,209433,-3496,2426,-612,-139,-219,-96,-148,208,-208
1,209439,-3496,2426,-612,-139,-219,-96,-148,208,-208
1,209444,-3496,2426,-612,-139,-219,-96,-148,208,-208
1,209449,-3496,2425,-606,-136,-222,-97,-154,208,-198
1,209456,-3496,2425,-606,-136,-222,-97,-154,208,-198
1,209461,-3496,2425,-606,-136,-222,-97,-154,208,-198
1,209466,-3496,2425,-606,-136,-222,-97,-154,208,-198
1,209472,-3498,2429,-612,-134,-226,-102,-154,208,-198
1,209477,-3498,2429,-612,-134,-226,-102,-154,208,-198
1,209483,-3498,2429,-612,-134,-226,-102,-154,208,-198
1,209488,-3496,2429,-609,-135,-226,-97,-154,208,-198
1,209494,-3496,2429,-609,-135,-226,-97,-154,208,-198
1,209500,-3496,2429,-609,-135,-226,-97,-154,208,-198
1,209505,-3496,2429,-609,-135,-226,-97,-154,208,-198
1,209510,-3496,2430,-612,-137,-227,-101,-154,208,-198
1,209516,-3496,2430,-612,-137,-227,-101,-154,208,-198
1,209522,-3496,2430,-612,-137,-227,-101,-154,208,-198
1,209526,-3497,2428,-608,-131,-226,-102,-154,208,-198
1,209532,-3497,2428,-608,-131,-226,-102,-154,208,-198
1,209539,-3497,2428,-608,-131,-226,-102,-154,208,-198
1,209544,-3497,2428,-608,-131,-226,-102,-154,208,-198
1,209549,-3497,2429,-611,-134,-231,-101,-154,208,-198
1,209554,-3497,2429,-611,-134,-231,-101,-154,208,-198
1,209559,-3497,2429,-611,-134,-231,-101,-154,208,-198
1,209565,-3497,2429,-611,-134,-231,-101,-154,208,-198
1,209570,-3495,2427,-608,-134,-228,-100,-153,207,-215
1,209576,-3495,2427,-608,-134,-228,-100,-153,207,-215
1,209582,-3495,2427,-608,-134,-228,-100,-153,207,-215
1,209588,-3496,2426,-609,-137,-226,-100,-153,207,-215
1,209593,-3496,2426,-609,-137,-226,-100,-153,207,-215
1,209598,-3496,2426,-609,-137,-226,-100,-153,207,-215
1,209603,-3496,2426,-609,-137,-226,-100,-153,207,-215
1,209609,-3495,2429,-605,-135,-223,-94,-153,207,-215
1,209614,-3495,2429,-605,-135,-223,-94,-153,207,-215
1,209620,-3495,2429,-605,-135,-223,-94,-153,207,-215
1,209626,-3495,2429,-605,-135,-223,-94,-153,207,-215
1,209632,-3495,2429,-610,-140,-226,-97,-153,207,-215
1,209637,-3495,2429,-610,-140,-226,-97,-153,207,-215
1,209642,-3495,2429,-610,-140,-226,-97,-153,207,-215
1,209647,-3495,2426,-607,-135,-225,-96,-153,207,-215
1,209652,-3495,2426,-607,-135,-225,-96,-153,207,-215
1,209658,-3495,2426,-607,-135,-225,-96,-153,207,-215
1,209664,-3495,2426,-607,-135,-225,-96,-153,207,-215
1,209669,-3496,2429,-608,-137,-222,-97,-153,207,-215
1,209674,-3496,2429,-608,-137,-222,-97,-153,207,-215
1,209680,-3496,2429,-608,-137,-222,-97,-153,207,-215
1,209685,-3496,2429,-608,-137,-222,-97,-153,207,-215
1,209690,-3496,2429,-610,-133,-220,-97,-160,212,-212
1,209695,-3496,2429,-610,-133,-220,-97,-160,212,-212
1,209700,-3496,2429,-610,-133,-220,-97,-160,212,-212
1,209705,-3496,2429,-610,-133,-220,-97,-160,212,-212
1,209712,-3490,2428,-602,-130,-227,-100,-160,212,-212
1,209717,-3490,2428,-602,-130,-227,-100,-160,212,-212
1,209722,-3490,2428,-602,-130,-227,-100,-160,212,-212
1,209728,-3495,2425,-607,-132,-229,-92,-160,212,-212
1,209733,-3495,2425,-607,-132,-229,-92,-160,212,-212
1,209738,-3495,2425,-607,-132,-229,-92,-160,212,-212
1,209744,-3495,2425,-607,-132,-229,-92,-160,212,-212
1,209750,-3494,2426,-610,-136,-220,-96,-160,212,-212
1,209755,-3494,2426,-610,-136,-220,-96,-160,212,-212
1,209761,-3494,2426,-610,-136,-220,-96,-160,212,-212
1,209767,-3494,2426,-610,-136,-220,-96,-160,212,-212
1,209772,-3496,2430,-611,-139,-221,-99,-160,212,-212
1,209777,-3496,2430,-611,-139,-221,-99,-160,212,-212
1,209782,-3496,2430,-611,-139,-221,-99,-160,212,-212
1,209787,-3495,2426,-615,-136,-223,-96,-160,212,-212
1,209793,-3495,2426,-615,-136,-223,-96,-160,212,-212
1,209799,-3495,2426,-615,-136,-223,-96,-160,212,-212
1,209804,-3495,2426,-615,-136,-223,-96,-160,212,-212
1,209809,-3496,2426,-613,-130,-224,-95,-149,211,-203
1,209815,-3496,2426,-613,-130,-224,-95,-149,211,-203
1,209821,-3496,2426,-613,-130,-224,-95,-149,211,-203
1,209826,-3496,2426,-613,-130,-224,-95,-149,211,-203
1,209831,-3497,2425,-601,-136,-224,-99,-149,211,-203
1,209837,-3497,2425,-601,-136,-224,-99,-149,211,-203
1,209843,-3497,2425,-601,-136,-224,-99,-149,211,-203
1,209848,-3497,2425,-609,-137,-230,-96,-149,211,-203
1,209854,-3497,2425,-609,-137,-230,-96,-149,211,-203
1,209860,-3497,2425,-609,-137,-230,-96,-149,211,-203
1,209865,-3497,2425,-609,-137,-230,-96,-149,211,-203
1,209871,-3494,2428,-603,-132,-230,-97,-149,211,-203
1,209876,-3494,2428,-603,-132,-230,-97,-149,211,-203
1,209883,-3494,2428,-603,-132,-230,-97,-149,211,-203
1,209887,-3495,2426,-609,-134,-223,-99,-149,211,-203
1,209893,-3495,2426,-609,-134,-223,-99,-149,211,-203
1,209898,-3495,2426,-609,-134,-223,-99,-149,211,-203
1,209904,-3495,2426,-609,-134,-223,-99,-149,211,-203
1,209909,-3491,2429,-613,-136,-226,-96,-149,211,-203
1,209915,-3491,2429,-613,-136,-226,-96,-149,211,-203
1,209921,-3491,2429,-613,-136,-226,-96,-149,211,-203
1,209927,-3491,2429,-613,-136,-226,-96,-149,211,-203
1,209931,-3492,2430,-607,-136,-233,-87,-149,211,-203
1,209937,-3492,2430,-607,-136,-233,-87,-149,211,-203
1,209942,-3492,2430,-607,-136,-233,-87,-149,211,-203
1,209949,-3491,2426,-606,-133,-220,-96,-152,208,-204
1,209955,-3491,2426,-606,-133,-220,-96,-152,208,-204
1,209960,-3491,2426,-606,-133,-220,-96,-152,208,-204
1,209967,-3491,2426,-606,-133,-220,-96,-152,208,-204
1,209972,-3495,2425,-614,-133,-220,-94,-152,208,-204
1,209977,-3495,2425,-614,-133,-220,-94,-152,208,-204
1,209983,-3495,2425,-614,-133,-220,-94,-152,208,-204
1,209988,-3495,2423,-609,-135,-222,-96,-152,208,-204
1,209993,-3495,2423,-609,-135,-222,-96,-152,208,-204
1,209998,-3495,2423,-609,-135,-222,-96,-152,208,-204
1,210004,-3495,2423,-609,-135,-222,-96,-152,208,-204
1,210010,-3495,2427,-609,-139,-224,-89,-152,208,-204
1,210015,-3495,2427,-609,-139,-224,-89,-152,208,-204
1,210021,-3495,2427,-609,-139,-224,-89,-152,208,-204
1,210026,-3495,2427,-609,-139,-224,-89,-152,208,-204
1,210031,-3493,2426,-609,-136,-232,-95,-152,208,-204
1,210037,-3493,2426,-609,-136,-232,-95,-152,208,-204
1,210042,-3493,2426,-609,-136,-232,-95,-152,208,-204
1,210049,-3493,2426,-609,-136,-232,-95,-152,208,-204
1,210054,-3493,2426,-609,-136,-232,-95,-152,208,-204
1,210060,-3493,2426,-609,-136,-232,-95,-152,208,-204
1,210065,-3493,2426,-609,-136,-232,-95,-152,208,-204
1,210071,-3496,2429,-606,-139,-220,-90,-149,213,-211
1,210076,-3496,2429,-606,-139,-220,-90,-149,213,-211
1,210082,-3496,2429,-606,-139,-220,-90,-149,213,-211
1,210087,-3498,2425,-608,-135,-226,-94,-149,213,-211
1,210093,-3498,2425,-608,-135,-226,-94,-149,213,-211
1,210099,-3498,2425,-608,-135,-226,-94,-149,213,-211
1,210104,-3498,2425,-608,-135,-226,-94,-149,213,-211
1,210109,-3498,2423,-606,-129,-227,-98,-149,213,-211
1,210114,-3498,2423,-606,-129,-227,-98,-149,213,-211
1,210119,-3498,2423,-606,-129,-227,-98,-149,213,-211
1,210124,-3498,2423,-606,-129,-227,-98,-149,213,-211
1,210130,-3497,2428,-608,-127,-232,-99,-149,213,-211
1,210136,-3497,2428,-608,-127,-232,-99,-149,213,-211
1,210142,-3497,2428,-608,-127,-232,-99,-149,213,-211
1,210147,-3497,2428,-608,-127,-232,-99,-149,213,-211
1,210153,-3493,2427,-606,-132,-226,-98,-149,213,-211
1,210158,-3493,2427,-606,-132,-226,-98,-149,213,-211
1,210164,-3493,2427,-606,-132,-226,-98,-149,213,-211
1,210169,-3498,2425,-609,-131,-225,-97,-149,213,-211
1,210174,-3498,2425,-609,-131,-225,-97,-149,213,-211
1,210180,-3498,2425,-609,-131,-225,-97,-149,213,-211
1,210186,-3498,2425,-609,-131,-225,-97,-149,213,-211
1,210190,-3496,2428,-606,-132,-224,-94,-153,209,-205
1,210196,-3496,2428,-606,-132,-224,-94,-153,209,-205
1,210201,-3496,2428,-606,-132,-224,-94,-153,209,-205
1,210207,-3496,2428,-606,-132,-224,-94,-153,209,-205
1,210212,-3495,2427,-605,-130,-229,-100,-153,209,-205
1,210217,-3495,2427,-605,-130,-229,-100,-153,209,-205
1,210224,-3495,2427,-605,-130,-229,-100,-153,209,-205
1,210229,-3494,2427,-608,-132,-229,-98,-153,209,-205
1,210235,-3494,2427,-608,-132,-229,-98,-153,209,-205
1,210240,-3494,2427,-608,-132,-229,-98,-153,209,-205
1,210246,-3494,2427,-608,-132,-229,-98,-153,209,-205
1,210251,-3494,2426,-612,-131,-228,-95,-153,209,-205
1,210257,-3494,2426,-612,-131,-228,-95,-153,209,-205
1,210263,-3494,2426,-612,-131,-228,-95,-153,209,-205
1,210268,-3497,2427,-609,-132,-227,-98,-153,209,-205
1,210273,-3497,2427,-609,-132,-227,-98,-153,209,-205
1,210279,-3497,2427,-609,-132,-227,-98,-153,209,-205
1,210284,-3497,2427,-609,-132,-227,-98,-153,209,-205
1,210290,-3499,2428,-610,-134,-225,-96,-153,209,-205
1,210295,-3499,2428,-610,-134,-225,-96,-153,209,-205
1,210301,-3499,2428,-610,-134,-225,-96,-153,209,-205
1,210307,-3499,2428,-610,-134,-225,-96,-153,209,-205
1,210313,-3496,2428,-610,-132,-222,-98,-154,204,-208
1,210318,-3496,2428,-610,-132,-222,-98,-154,204,-208
1,210324,-3496,2428,-610,-132,-222,-98,-154,204,-208
1,210329,-3492,2429,-607,-130,-219,-97,-154,204,-208
1,210335,-3492,2429,-607,-130,-219,-97,-154,204,-208
1,210340,-3492,2429,-607,-130,-219,-97,-154,204,-208
1,210347,-3492,2429,-607,-130,-219,-97,-154,204,-208
1,210352,-3494,2427,-606,-132,-224,-101,-154,204,-208
1,210358,-3494,2427,-606,-132,-224,-101,-154,204,-208
1,210363,-3494,2427,-606,-132,-224,-101,-154,204,-208
1,210368,-3496,2429,-608,-134,-219,-101,-154,204,-208
1,210374,-3496,2429,-608,-134,-219,-101,-154,204,-208
1,210379,-3496,2429,-608,-134,-219,-101,-154,204,-208
1,210384,-3496,2429,-608,-134,-219,-101,-154,204,-208
1,210390,-3495,2428,-607,-136,-218,-96,-154,204,-208
1,210395,-3495,2428,-607,-136,-218,-96,-154,204,-208
1,210400,-3495,2428,-607,-136,-218,-96,-154,204,-208
1,210406,-3495,2428,-607,-136,-218,-96,-154,204,-208
1,210411,-3497,2424,-612,-129,-230,-99,-154,204,-208
1,210417,-3497,2424,-612,-129,-230,-99,-154,204,-208
1,210422,-3497,2424,-612,-129,-230,-99,-154,204,-208
1,210428,-3494,2427,-610,-127,-230,-97,-157,203,-211
1,210434,-3494,2427,-610,-127,-230,-97,-157,203,-211
1,210438,-3494,2427,-610,-127,-230,-97,-157,203,-211
1,210444,-3494,2427,-610,-127,-230,-97,-157,203,-211
1,210449,-3496,2430,-606,-129,-223,-89,-157,203,-211
1,210454,-3496,2430,-606,-129,-223,-89,-157,203,-211
1,210459,-3496,2430,-606,-129,-223,-89,-157,203,-211
1,210464,-3496,2430,-606,-129,-223,-89,-157,203,-211
1,210469,-3497,2430,-614,-133,-221,-92,-157,203,-211
1,210475,-3497,2430,-614,-133,-221,-92,-157,203,-211
1,210481,-3497,2430,-614,-133,-221,-92,-157,203,-211
1,210486,-3497,2430,-614,-133,-221,-92,-157,203,-211
1,210491,-3494,2425,-603,-134,-234,-97,-157,203,-211
1,210497,-3494,2425,-603,-134,-234,-97,-157,203,-211
1,210502,-3494,2425,-603,-134,-234,-97,-157,203,-211
1,210508,-3496,2428,-607,-134,-228,-90,-157,203,-211
1,210512,-3496,2428,-607,-134,-228,-90,-157,203,-211
1,210519,-3496,2428,-607,-134,-228,-90,-157,203,-211
1,210524,-3496,2428,-607,-134,-228,-90,-157,203,-211
1,210530,-3494,2426,-611,-133,-218,-95,-157,203,-211
1,210535,-3494,2426,-611,-133,-218,-95,-157,203,-211
1,210540,-3494,2426,-611,-133,-218,-95,-157,203,-211
1,210545,-3494,2426,-611,-133,-218,-95,-157,203,-211
1,210550,-3492,2427,-610,-134,-225,-96,-152,214,-204
1,210555,-3492,2427,-610,-134,-225,-96,-152,214,-204
1,210562,-3492,2427,-610,-134,-225,-96,-152,214,-204
1,210567,-3492,2427,-610,-134,-225,-96,-152,214,-204
1,210573,-3497,2428,-601,-139,-231,-104,-152,214,-204
1,210578,-3497,2428,-601,-139,-231,-104,-152,214,-204
1,210584,-3497,2428,-601,-139,-231,-104,-152,214,-204
1,210589,-3492,2428,-608,-136,-220,-101,-152,214,-204
1,210594,-3492,2428,-608,-136,-220,-101,-152,214,-204
1,210600,-3492,2428,-608,-136,-220,-101,-152,214,-204
1,210606,-3492,2428,-608,-136,-220,-101,-152,214,-204
1,210611,-3495,2429,-609,-135,-222,-99,-152,214,-204
1,210617,-3495,2429,-609,-135,-222,-99,-152,214,-204
1,210622,-3495,2429,-609,-135,-222,-99,-152,214,-204
1,210628,-3495,2426,-610,-132,-222,-100,-152,214,-204
1,210634,-3495,2426,-610,-132,-222,-100,-152,214,-204
1,210639,-3495,2426,-610,-132,-222,-100,-152,214,-204
1,210644,-3495,2426,-610,-132,-222,-100,-152,214,-204
1,210651,-3494,2426,-613,-134,-216,-91,-152,214,-204
1,210656,-3494,2426,-613,-134,-216,-91,-152,214,-204
1,210662,-3494,2426,-613,-134,-216,-91,-152,214,-204
1,210667,-3494,2426,-613,-134,-216,-91,-152,214,-204
1,210672,-3493,2425,-613,-132,-232,-95,-152,214,-204
1,210679,-3493,2425,-613,-132,-232,-95,-152,214,-204
1,210686,-3493,2425,-613,-132,-232,-95,-152,214,-204
1,210692,-3498,2427,-606,-139,-237,-99,-154,210,-212
1,210698,-3498,2427,-606,-139,-237,-99,-154,210,-212
1,210703,-3498,2427,-606,-139,-237,-99,-154,210,-212
1,210709,-3493,2429,-609,-133,-232,-89,-154,210,-212
1,210714,-3493,2429,-609,-133,-232,-89,-154,210,-212
1,210719,-3493,2429,-609,-133,-232,-89,-154,210,-212
1,210725,-3493,2429,-609,-133,-232,-89,-154,210,-212
1,210731,-3498,2426,-611,-135,-224,-89,-154,210,-212
1,210737,-3498,2426,-611,-135,-224,-89,-154,210,-212
1,210742,-3498,2426,-611,-135,-224,-89,-154,210,-212
1,210748,-3498,2426,-611,-135,-224,-89,-154,210,-212
1,210753,-3495,2428,-608,-126,-224,-86,-154,210,-212
1,210759,-3495,2428,-608,-126,-224,-86,-154,210,-212
1,210764,-3495,2428,-608,-126,-224,-86,-154,210,-212
1,210770,-3497,2426,-611,-136,-223,-92,-154,210,-212
1,210776,-3497,2426,-611,-136,-223,-92,-154,210,-212
1,210781,-3497,2426,-611,-136,-223,-92,-154,210,-212
1,210787,-3497,2426,-611,-136,-223,-92,-154,210,-212
1,210792,-3496,2428,-609,-135,-225,-98,-154,210,-212
1,210798,-3496,2428,-609,-135,-225,-98,-154,210,-212
1,210804,-3496,2428,-609,-135,-225,-98,-154,210,-212
1,210809,-3495,2428,-610,-136,-226,-97,-156,206,-206
1,210816,-3495,2428,-610,-136,-226,-97,-156,206,-206
1,210821,-3495,2428,-610,-136,-226,-97,-156,206,-206
1,210826,-3495,2428,-610,-136,-226,-97,-156,206,-206
1,210831,-3494,2427,-609,-134,-221,-99,-156,206,-206
1,210837,-3494,2427,-609,-134,-221,-99,-156,206,-206
1,210842,-3494,2427,-609,-134,-221,-99,-156,206,-206
1,210848,-3495,2424,-607,-131,-224,-97,-156,206,-206
1,210853,-3495,2424,-607,-131,-224,-97,-156,206,-206
1,210860,-3495,2424,-607,-131,-224,-97,-156,206,-206
1,210865,-3495,2424,-607,-131,-224,-97,-156,206,-206
1,210870,-3493,2429,-606,-133,-222,-102,-156,206,-206
1,210876,-3493,2429,-606,-133,-222,-102,-156,206,-206
1,210882,-3493,2429,-606,-133,-222,-102,-156,206,-206
1,210887,-3493,2429,-606,-133,-222,-102,-156,206,-206
1,210892,-3493,2427,-603,-132,-229,-96,-156,206,-206
1,210898,-3493,2427,-603,-132,-229,-96,-156,206,-206
1,210905,-3493,2427,-603,-132,-229,-96,-156,206,-206
1,210910,-3497,2425,-610,-126,-231,-96,-156,206,-206
1,210914,-3497,2425,-610,-126,-231,-96,-156,206,-206
1,210920,-3497,2425,-610,-126,-231,-96,-156,206,-206
1,210926,-3497,2425,-610,-126,-231,-96,-156,206,-206
1,210931,-3494,2427,-605,-130,-221,-98,-154,214,-210
1,210937,-3494,2427,-605,-130,-221,-98,-154,214,-210
1,210942,-3494,2427,-605,-130,-221,-98,-154,214,-210
1,210949,-3496,2427,-608,-131,-229,-95,-154,214,-210
1,210954,-3496,2427,-608,-131,-229,-95,-154,214,-210
1,210959,-3496,2427,-608,-131,-229,-95,-154,214,-210
1,210965,-3496,2427,-608,-131,-229,-95,-154,214,-210
1,210970,-3496,2426,-612,-139,-231,-96,-154,214,-210
1,210975,-3496,2426,-612,-139,-231,-96,-154,214,-210
1,210981,-3496,2426,-612,-139,-231,-96,-154,214,-210
1,210987,-3496,2426,-612,-139,-231,-96,-154,214,-210
1,210992,-3497,2427,-608,-138,-221,-96,-154,214,-210
1,210998,-3497,2427,-608,-138,-221,-96,-154,214,-210
1,211002,-3497,2427,-608,-138,-221,-96,-154,214,-210
1,211007,-3497,2427,-608,-138,-221,-96,-154,214,-210
1,211013,-3495,2431,-610,-135,-219,-92,-154,214,-210
1,211018,-3495,2431,-610,-135,-219,-92,-154,214,-210
1,211024,-3495,2431,-610,-135,-219,-92,-154,214,-210
1,211030,-3495,2426,-609,-137,-233,-89,-154,214,-210
1,211035,-3495,2426,-609,-137,-233,-89,-154,214,-210
1,211041,-3495,2426,-609,-137,-233,-89,-154,214,-210
1,211046,-3495,2426,-609,-137,-233,-89,-154,214,-210
1,211051,-3495,2428,-608,-140,-231,-92,-156,212,-212
1,211057,-3495,2428,-608,-140,-231,-92,-156,212,-212
1,211063,-3495,2428,-608,-140,-231,-92,-156,212,-212
1,211069,-3495,2429,-605,-140,-226,-92,-156,212,-212
1,211075,-3495,2429,-605,-140,-226,-92,-156,212,-212
1,211080,-3495,2429,-605,-140,-226,-92,-156,212,-212
1,211085,-3495,2429,-605,-140,-226,-92,-156,212,-212
1,211090,-3496,2425,-606,-137,-224,-97,-156,212,-212
1,211096,-3496,2425,-606,-137,-224,-97,-156,212,-212
1,211101,-3496,2425,-606,-137,-224,-97,-156,212,-212
1,211107,-3496,2425,-606,-137,-224,-97,-156,212,-212
1,211112,-3496,2425,-614,-133,-231,-92,-156,212,-212
1,211119,-3496,2425,-614,-133,-231,-92,-156,212,-212
1,211124,-3496,2425,-614,-133,-231,-92,-156,212,-212
1,211129,-3496,2427,-612,-131,-231,-91,-156,212,-212
1,211134,-3496,2427,-612,-131,-231,-91,-156,212,-212
1,211140,-3496,2427,-612,-131,-231,-91,-156,212,-212
1,211145,-3496,2427,-612,-131,-231,-91,-156,212,-212
1,211151,-3495,2428,-613,-131,-220,-89,-156,212,-212
1,211156,-3495,2428,-613,-131,-220,-89,-156,212,-212
1,211162,-3495,2428,-613,-131,-220,-89,-156,212,-212
1,211168,-3495,2428,-613,-131,-220,-89,-156,212,-212
1,211173,-3495,2428,-606,-131,-215,-93,-149,205,-209
1,211179,-3495,2428,-606,-131,-215,-93,-149,205,-209
1,211184,-3495,2428,-606,-131,-215,-93,-149,205,-209
1,211189,-3498,2428,-611,-130,-221,-94,-149,205,-209
1,211195,-3498,2428,-611,-130,-221,-94,-149,205,-209
1,211201,-3498,2428,-611,-130,-221,-94,-149,205,-209
1,211206,-3498,2428,-611,-130,-221,-94,-149,205,-209
1,211211,-3494,2426,-608,-122,-221,-95,-149,205,-209
1,211217,-3494,2426,-608,-122,-221,-95,-149,205,-209
1,211222,-3494,2426,-608,-122,-221,-95,-149,205,-209
1,211228,-3495,2428,-609,-128,-217,-96,-149,205,-209
1,211234,-3495,2428,-609,-128,-217,-96,-149,205,-209
1,211239,-3495,2428,-609,-128,-217,-96,-149,205,-209
1,211246,-3495,2428,-609,-128,-217,-96,-149,205,-209
1,211251,-3497,2428,-613,-131,-223,-89,-149,205,-209
1,211257,-3497,2428,-613,-131,-223,-89,-149,205,-209
1,211262,-3497,2428,-613,-131,-223,-89,-149,205,-209
1,211267,-3497,2428,-613,-131,-223,-89,-149,205,-209
1,211273,-3498,2429,-609,-127,-216,-92,-149,205,-209
1,211278,-3498,2429,-609,-127,-216,-92,-149,205,-209
1,211284,-3498,2429,-609,-127,-216,-92,-149,205,-209
1,211290,-3495,2425,-608,-131,-222,-101,-149,205,-209
1,211295,-3495,2425,-608,-131,-222,-101,-149,205,-209
1,211301,-3495,2425,-608,-131,-222,-101,-149,205,-209
1,211306,-3495,2425,-608,-131,-222,-101,-149,205,-209
1,211312,-3498,2430,-607,-133,-222,-101,-156,218,-214
1,211317,-3498,2430,-607,-133,-222,-101,-156,218,-214
1,211323,-3498,2430,-607,-133,-222,-101,-156,218,-214
1,211329,-3492,2430,-612,-132,-225,-92,-156,218,-214
1,211334,-3492,2430,-612,-132,-225,-92,-156,218,-214
1,211340,-3492,2430,-612,-132,-225,-92,-156,218,-214
1,211345,-3492,2430,-612,-132,-225,-92,-156,218,-214
1,211350,-3497,2431,-606,-132,-222,-95,-156,218,-214
1,211355,-3497,2431,-606,-132,-222,-95,-156,218,-214
1,211360,-3497,2431,-606,-132,-222,-95,-156,218,-214
1,211365,-3497,2431,-606,-132,-222,-95,-156,218,-214
1,211371,-3494,2429,-614,-136,-222,-100,-156,218,-214
1,211377,-3494,2429,-614,-136,-222,-100,-156,218,-214
1,211382,-3494,2429,-614,-136,-222,-100,-156,218,-214
1,211387,-3494,2429,-614,-136,-222,-100,-156,218,-214
1,211392,-3495,2428,-609,-129,-223,-101,-156,218,-214
1,211398,-3495,2428,-609,-129,-223,-101,-156,218,-214
1,211403,-3495,2428,-609,-129,-223,-101,-156,218,-214
1,211408,-3495,2429,-613,-131,-224,-105,-156,218,-214
1,211415,-3495,2429,-613,-131,-224,-105,-156,218,-214
1,211419,-3495,2429,-613,-131,-224,-105,-156,218,-214
1,211425,-3495,2429,-613,-131,-224,-105,-156,218,-214
1,211430,-3494,2427,-605,-136,-224,-96,-153,209,-209
1,211435,-3494,2427,-605,-136,-224,-96,-153,209,-209
1,211441,-3494,2427,-605,-136,-224,-96,-153,209,-209
1,211446,-3494,2427,-605,-136,-224,-96,-153,209,-209
1,211451,-3494,2426,-605,-131,-230,-97,-153,209,-209
1,211457,-3494,2426,-605,-131,-230,-97,-153,209,-209
1,211463,-3494,2426,-605,-131,-230,-97,-153,209,-209
1,211468,-3494,2426,-605,-131,-230,-97,-153,209,-209
1,211474,-3492,2427,-612,-137,-233,-90,-153,209,-209
1,211479,-3492,2427,-612,-137,-233,-90,-153,209,-209
1,211484,-3492,2427,-612,-137,-233,-90,-153,209,-209
1,211490,-3495,2424,-609,-135,-227,-94,-153,209,-209
1,211495,-3495,2424,-609,-135,-227,-94,-153,209,-209
1,211501,-3495,2424,-609,-135,-227,-94,-153,209,-209
1,211507,-3495,2424,-609,-135,-227,-94,-153,209,-209
1,211512,-3496,2428,-611,-134,-218,-91,-153,209,-209
1,211518,-3496,2428,-611,-134,-218,-91,-153,209,-209
1,211523,-3496,2428,-611,-134,-218,-91,-153,209,-209
1,211528,-3495,2428,-608,-133,-215,-96,-153,209,-209
1,211534,-3495,2428,-608,-133,-215,-96,-153,209,-209
1,211539,-3495,2428,-608,-133,-215,-96,-153,209,-209
1,211546,-3495,2428,-608,-133,-215,-96,-153,209,-209
1,211551,-3499,2427,-604,-132,-223,-103,-152,206,-204
1,211556,-3499,2427,-604,-132,-223,-103,-152,206,-204
1,211562,-3499,2427,-604,-132,-223,-103,-152,206,-204
1,211567,-3499,2427,-604,-132,-223,-103,-152,206,-204
1,211572,-3496,2427,-609,-129,-229,-95,-152,206,-204
1,211578,-3496,2427,-609,-129,-229,-95,-152,206,-204
1,211584,-3496,2427,-609,-129,-229,-95,-152,206,-204
1,211590,-3496,2427,-608,-131,-217,-95,-152,206,-204
1,211595,-3496,2427,-608,-131,-217,-95,-152,206,-204
1,211600,-3496,2427,-608,-131,-217,-95,-152,206,-204
1,211605,-3496,2427,-608,-131,-217,-95,-152,206,-204
1,211611,-3495,2425,-608,-129,-225,-95,-152,206,-204
1,211616,-3495,2425,-608,-129,-225,-95,-152,206,-204
1,211621,-3495,2425,-608,-129,-225,-95,-152,206,-204
1,211628,-3495,2425,-608,-129,-225,-95,-152,206,-204
1,211633,-3499,2428,-611,-133,-234,-97,-152,206,-204
1,211638,-3499,2428,-611,-133,-234,-97,-152,206,-204
1,211643,-3499,2428,-611,-133,-234,-97,-152,206,-204
1,211649,-3495,2425,-612,-132,-229,-98,-152,206,-204
1,211654,-3495,2425,-612,-132,-229,-98,-152,206,-204
1,211660,-3495,2425,-612,-132,-229,-98,-152,206,-204
1,211665,-3495,2425,-612,-132,-229,-98,-152,206,-204
1,211672,-3494,2428,-605,-135,-223,-96,-156,204,-212
1,211676,-3494,2428,-605,-135,-223,-96,-156,204,-212
1,211682,-3494,2428,-605,-135,-223,-96,-156,204,-212
1,211688,-3494,2428,-605,-135,-223,-96,-156,204,-212
1,211694,-3494,2424,-607,-136,-222,-93,-156,204,-212
1,211699,-3494,2424,-607,-136,-222,-93,-156,204,-212
1,211704,-3494,2424,-607,-136,-222,-93,-156,204,-212
1,211710,-3494,2429,-607,-131,-220,-86,-156,204,-212
1,211716,-3494,2429,-607,-131,-220,-86,-156,204,-212
1,211722,-3494,2429,-607,-131,-220,-86,-156,204,-212
1,211727,-3494,2429,-607,-131,-220,-86,-156,204,-212
1,211733,-3493,2428,-612,-126,-222,-95,-156,204,-212
1,211738,-3493,2428,-612,-126,-222,-95,-156,204,-212
1,211743,-3493,2428,-612,-126,-222,-95,-156,204,-212
1,211749,-3496,2426,-607,-133,-229,-102,-156,204,-212
1,211755,-3496,2426,-607,-133,-229,-102,-156,204,-212
1,211761,-3496,2426,-607,-133,-229,-102,-156,204,-212
1,211766,-3496,2426,-607,-133,-229,-102,-156,204,-212
1,211771,-3496,2425,-610,-135,-227,-96,-156,204,-212
1,211777,-3496,2425,-610,-135,-227,-96,-156,204,-212
1,211782,-3496,2425,-610,-135,-227,-96,-156,204,-212
1,211787,-3496,2425,-610,-135,-227,-96,-156,204,-212
1,211793,-3496,2428,-609,-137,-229,-95,-153,211,-201
1,211799,-3496,2428,-609,-137,-229,-95,-153,211,-201
1,211804,-3496,2428,-609,-137,-229,-95,-153,211,-201
1,211810,-3493,2430,-608,-132,-222,-96,-153,211,-201
1,211815,-3493,2430,-608,-132,-222,-96,-153,211,-201
1,211821,-3493,2430,-608,-132,-222,-96,-153,211,-201
1,211826,-3493,2430,-608,-132,-222,-96,-153,211,-201
1,211832,-3496,2427,-609,-126,-221,-92,-153,211,-201
1,211838,-3496,2427,-609,-126,-221,-92,-153,211,-201
1,211844,-3496,2427,-609,-126,-221,-92,-153,211,-201
1,211849,-3496,2427,-609,-130,-221,-88,-153,211,-201
1,211855,-3496,2427,-609,-130,-221,-88,-153,211,-201
1,211860,-3496,2427,-609,-130,-221,-88,-153,211,-201
1,211865,-3496,2427,-609,-130,-221,-88,-153,211,-201
1,211871,-3494,2426,-607,-132,-223,-94,-153,211,-201
1,211877,-3494,2426,-607,-132,-223,-94,-153,211,-201
1,211883,-3494,2426,-607,-132,-223,-94,-153,211,-201
1,211889,-3494,2426,-607,-132,-223,-94,-153,211,-201
1,211894,-3493,2425,-610,-131,-223,-93,-153,211,-201
1,211900,-3493,2425,-610,-131,-223,-93,-153,211,-201
1,211905,-3493,2425,-610,-131,-223,-93,-153,211,-201
1,211911,-3493,2427,-611,-130,-219,-91,-147,205,-203
1,211917,-3493,2427,-611,-130,-219,-91,-147,205,-203
1,211922,-3493,2427,-611,-130,-219,-91,-147,205,-203
1,211929,-3493,2427,-611,-130,-219,-91,-147,205,-203
1,211934,-3500,2427,-606,-133,-216,-103,-147,205,-203
1,211939,-3500,2427,-606,-133,-216,-103,-147,205,-203
1,211945,-3500,2427,-606,-133,-216,-103,-147,205,-203
1,211950,-3496,2428,-608,-128,-225,-104,-147,205,-203
1,211955,-3496,2428,-608,-128,-225,-104,-147,205,-203
1,211960,-3496,2428,-608,-128,-225,-104,-147,205,-203
1,211966,-3496,2428,-608,-128,-225,-104,-147,205,-203
1,211972,-3494,2427,-600,-130,-221,-105,-147,205,-203
1,211978,-3494,2427,-600,-130,-221,-105,-147,205,-203
1,211983,-3494,2427,-600,-130,-221,-105,-147,205,-203
1,211988,-3494,2427,-600,-130,-221,-105,-147,205,-203
1,211994,-3491,2428,-608,-131,-223,-94,-147,205,-203
1,212000,-3491,2428,-608,-131,-223,-94,-147,205,-203
1,212005,-3491,2428,-608,-131,-223,-94,-147,205,-203
1,212011,-3496,2428,-608,-135,-224,-97,-147,205,-203
1,212016,-3496,2428,-608,-135,-224,-97,-147,205,-203
1,212023,-3496,2428,-608,-135,-224,-97,-147,205,-203
1,212028,-3496,2428,-608,-135,-224,-97,-147,205,-203
1,212034,-3494,2425,-605,-135,-222,-102,-147,205,-203
1,212039,-3494,2425,-605,-135,-222,-102,-147,205,-203
1,212044,-3494,2425,-605,-135,-222,-102,-147,205,-203
1,212050,-3495,2428,-606,-133,-227,-101,-153,207,-207
1,212057,-3495,2428,-606,-133,-227,-101,-153,207,-207
1,212062,-3495,2428,-606,-133,-227,-101,-153,207,-207
1,212068,-3495,2428,-606,-133,-227,-101,-153,207,-207
