imu,time,ax,ay,az,gx,gy,gz,mx,my,mz
0,199628,389,2748,-568,-1487,-306,-48,-41,205,-159
0,199636,387,2749,-569,-1490,-313,-48,-41,205,-159
0,199644,387,2749,-569,-1490,-313,-48,-41,205,-159
0,199652,387,2749,-569,-1490,-313,-48,-41,205,-159
0,199660,389,2748,-571,-1489,-304,-51,-41,205,-159
0,199667,389,2748,-571,-1489,-304,-51,-41,205,-159
0,199673,389,2748,-571,-1489,-304,-51,-41,205,-159
0,199680,387,2750,-567,-1486,-302,-51,-39,199,-155
0,199686,387,2750,-567,-1486,-302,-51,-39,199,-155
0,199692,387,2750,-567,-1486,-302,-51,-39,199,-155
0,199698,386,2748,-569,-1492,-313,-52,-39,199,-155
0,199704,386,2748,-569,-1492,-313,-52,-39,199,-155
0,199710,386,2748,-569,-1492,-313,-52,-39,199,-155
0,199716,388,2745,-576,-1486,-313,-56,-39,199,-155
0,199723,388,2745,-576,-1486,-313,-56,-39,199,-155
0,199729,388,2745,-576,-1486,-313,-56,-39,199,-155
0,199735,388,2745,-576,-1486,-313,-56,-39,199,-155
0,199740,387,2747,-569,-1489,-308,-50,-39,199,-155
0,199746,387,2747,-569,-1489,-308,-50,-39,199,-155
0,199751,387,2747,-569,-1489,-308,-50,-39,199,-155
0,199757,387,2748,-570,-1488,-310,-46,-39,199,-155
0,199762,387,2748,-570,-1488,-310,-46,-39,199,-155
0,199769,387,2748,-570,-1488,-310,-46,-39,199,-155
0,199774,387,2748,-570,-1488,-310,-46,-39,199,-155
0,199780,389,2751,-566,-1491,-312,-46,-39,199,-155
0,199785,389,2751,-566,-1491,-312,-46,-39,199,-155
0,199791,389,2751,-566,-1491,-312,-46,-39,199,-155
0,199797,387,2748,-570,-1487,-303,-47,-48,196,-158
0,199802,387,2748,-570,-1487,-303,-47,-48,196,-158
0,199808,387,2748,-570,-1487,-303,-47,-48,196,-158
0,199813,387,2748,-570,-1487,-303,-47,-48,196,-158
0,199819,384,2751,-565,-1492,-311,-50,-48,196,-158
0,199824,384,2751,-565,-1492,-311,-50,-48,196,-158
0,199829,384,2751,-565,-1492,-311,-50,-48,196,-158
0,199834,384,2751,-565,-1492,-311,-50,-48,196,-158
0,199840,387,2747,-571,-1488,-310,-54,-48,196,-158
0,199845,387,2747,-571,-1488,-310,-54,-48,196,-158
0,199851,387,2747,-571,-1488,-310,-54,-48,196,-158
0,199857,389,2751,-573,-1491,-307,-46,-48,196,-158
0,199862,389,2751,-573,-1491,-307,-46,-48,196,-158
0,199867,389,2751,-573,-1491,-307,-46,-48,196,-158
0,199873,389,2751,-573,-1491,-307,-46,-48,196,-158
0,199878,389,2749,-572,-1485,-309,-51,-48,196,-158
0,199884,389,2749,-572,-1485,-309,-51,-48,196,-158
0,199889,389,2749,-572,-1485,-309,-51,-48,196,-158
0,199895,389,2749,-572,-1485,-309,-51,-48,196,-158
0,199901,388,2748,-569,-1486,-306,-41,-48,196,-158
0,199906,388,2748,-569,-1486,-306,-41,-48,196,-158
0,199912,388,2748,-569,-1486,-306,-41,-48,196,-158
0,199917,386,2749,-570,-1488,-306,-44,-46,212,-162
0,199923,386,2749,-570,-1488,-306,-44,-46,212,-162
0,199929,386,2749,-570,-1488,-306,-44,-46,212,-162
0,199934,386,2749,-570,-1488,-306,-44,-46,212,-162
0,199940,388,2751,-571,-1485,-313,-46,-46,212,-162
0,199945,388,2751,-571,-1485,-313,-46,-46,212,-162
0,199951,388,2751,-571,-1485,-313,-46,-46,212,-162
0,199956,388,2751,-571,-1485,-313,-46,-46,212,-162
0,199962,387,2751,-575,-1486,-306,-47,-46,212,-162
0,199967,387,2751,-575,-1486,-306,-47,-46,212,-162
0,199973,387,2751,-575,-1486,-306,-47,-46,212,-162
0,199979,388,2750,-574,-1486,-309,-49,-46,212,-162
0,199984,388,2750,-574,-1486,-309,-49,-46,212,-162
0,199990,388,2750,-574,-1486,-309,-49,-46,212,-162
0,199995,388,2750,-574,-1486,-309,-49,-46,212,-162
0,200001,391,2747,-577,-1492,-306,-43,-46,212,-162
0,200007,391,2747,-577,-1492,-306,-43,-46,212,-162
0,200012,391,2747,-577,-1492,-306,-43,-46,212,-162
0,200018,389,2748,-571,-1499,-307,-47,-46,212,-162
0,200024,389,2748,-571,-1499,-307,-47,-46,212,-162
0,200030,389,2748,-571,-1499,-307,-47,-46,212,-162
0,200035,389,2748,-571,-1499,-307,-47,-46,212,-162
0,200040,389,2747,-570,-1492,-302,-49,-46,212,-162
0,200046,389,2747,-570,-1492,-302,-49,-46,212,-162
0,200052,389,2747,-570,-1492,-302,-49,-46,212,-162
0,200057,388,2747,-569,-1490,-304,-54,-50,200,-166
0,200062,388,2747,-569,-1490,-304,-54,-50,200,-166
0,200068,388,2747,-569,-1490,-304,-54,-50,200,-166
0,200073,388,2747,-569,-1490,-304,-54,-50,200,-166
0,200079,384,2746,-572,-1499,-308,-52,-50,200,-166
0,200084,384,2746,-572,-1499,-308,-52,-50,200,-166
0,200089,384,2746,-572,-1499,-308,-52,-50,200,-166
0,200095,384,2746,-572,-1499,-308,-52,-50,200,-166
0,200100,388,2750,-570,-1498,-300,-50,-50,200,-166
0,200105,388,2750,-570,-1498,-300,-50,-50,200,-166
0,200112,388,2750,-570,-1498,-300,-50,-50,200,-166
0,200117,387,2749,-574,-1493,-302,-48,-50,200,-166
0,200122,387,2749,-574,-1493,-302,-48,-50,200,-166
0,200127,387,2749,-574,-1493,-302,-48,-50,200,-166
0,200133,387,2749,-574,-1493,-302,-48,-50,200,-166
0,200137,388,2751,-572,-1491,-309,-59,-50,200,-166
0,200143,388,2751,-572,-1491,-309,-59,-50,200,-166
0,200148,388,2751,-572,-1491,-309,-59,-50,200,-166
0,200155,388,2751,-572,-1491,-309,-59,-50,200,-166
0,200161,386,2751,-570,-1491,-314,-55,-50,200,-166
0,200166,386,2751,-570,-1491,-314,-55,-50,200,-166
0,200172,386,2751,-570,-1491,-314,-55,-50,200,-166
0,200177,386,2751,-571,-1494,-305,-53,-45,207,-165
0,200182,386,2751,-571,-1494,-305,-53,-45,207,-165
0,200188,386,2751,-571,-1494,-305,-53,-45,207,-165
0,200194,386,2751,-571,-1494,-305,-53,-45,207,-165
0,200199,386,2749,-571,-1484,-307,-54,-45,207,-165
0,200205,386,2749,-571,-1484,-307,-54,-45,207,-165
0,200210,386,2749,-571,-1484,-307,-54,-45,207,-165
0,200216,386,2749,-571,-1484,-307,-54,-45,207,-165
0,200221,388,2752,-570,-1477,-310,-48,-45,207,-165
0,200226,388,2752,-570,-1477,-310,-48,-45,207,-165
0,200231,388,2752,-570,-1477,-310,-48,-45,207,-165
0,200238,387,2749,-576,-1489,-305,-45,-45,207,-165
0,200243,387,2749,-576,-1489,-305,-45,-45,207,-165
0,200249,387,2749,-576,-1489,-305,-45,-45,207,-165
0,200254,387,2749,-576,-1489,-305,-45,-45,207,-165
0,200260,385,2751,-574,-1494,-306,-46,-45,207,-165
0,200266,385,2751,-574,-1494,-306,-46,-45,207,-165
0,200271,385,2751,-574,-1494,-306,-46,-45,207,-165
0,200276,386,2749,-567,-1489,-306,-48,-45,207,-165
0,200282,386,2749,-567,-1489,-306,-48,-45,207,-165
0,200287,386,2749,-567,-1489,-306,-48,-45,207,-165
0,200291,386,2749,-567,-1489,-306,-48,-45,207,-165
0,200296,386,2749,-567,-1489,-306,-48,-45,207,-165
0,200301,386,2749,-566,-1489,-309,-48,-31,195,-163
0,200306,386,2749,-566,-1489,-309,-48,-31,195,-163
0,200311,386,2749,-566,-1489,-309,-48,-31,195,-163
0,200317,385,2748,-568,-1493,-311,-52,-31,195,-163
0,200323,385,2748,-568,-1493,-311,-52,-31,195,-163
0,200328,385,2748,-568,-1493,-311,-52,-31,195,-163
0,200333,385,2748,-568,-1493,-311,-52,-31,195,-163
0,200339,390,2746,-571,-1494,-310,-49,-31,195,-163
0,200344,390,2746,-571,-1494,-310,-49,-31,195,-163
0,200349,390,2746,-571,-1494,-310,-49,-31,195,-163
0,200354,390,2746,-571,-1494,-310,-49,-31,195,-163
0,200360,388,2750,-569,-1488,-299,-54,-31,195,-163
0,200366,388,2750,-569,-1488,-299,-54,-31,195,-163
0,200372,388,2750,-569,-1488,-299,-54,-31,195,-163
0,200377,388,2750,-569,-1488,-299,-54,-31,195,-163
0,200382,390,2750,-571,-1486,-309,-49,-31,195,-163
0,200388,390,2750,-571,-1486,-309,-49,-31,195,-163
0,200393,390,2750,-571,-1486,-309,-49,-31,195,-163
0,200398,387,2749,-568,-1491,-312,-49,-31,195,-163
0,200403,387,2749,-568,-1491,-312,-49,-31,195,-163
0,200409,387,2749,-568,-1491,-312,-49,-31,195,-163
0,200414,387,2749,-568,-1491,-312,-49,-31,195,-163
0,200420,388,2749,-571,-1498,-311,-49,-46,208,-154
0,200425,388,2749,-571,-1498,-311,-49,-46,208,-154
0,200430,388,2749,-571,-1498,-311,-49,-46,208,-154
0,200436,388,2749,-571,-1498,-311,-49,-46,208,-154
0,200440,387,2747,-569,-1495,-310,-43,-46,208,-154
0,200446,387,2747,-569,-1495,-310,-43,-46,208,-154
0,200452,387,2747,-569,-1495,-310,-43,-46,208,-154
0,200458,387,2749,-571,-1489,-308,-51,-46,208,-154
0,200462,387,2749,-571,-1489,-308,-51,-46,208,-154
0,200468,387,2749,-571,-1489,-308,-51,-46,208,-154
0,200473,387,2749,-571,-1489,-308,-51,-46,208,-154
0,200479,391,2749,-570,-1487,-305,-43,-46,208,-154
0,200484,391,2749,-570,-1487,-305,-43,-46,208,-154
0,200489,391,2749,-570,-1487,-305,-43,-46,208,-154
0,200496,391,2749,-570,-1487,-305,-43,-46,208,-154
0,200501,388,2751,-573,-1489,-307,-46,-46,208,-154
0,200506,388,2751,-573,-1489,-307,-46,-46,208,-154
0,200511,388,2751,-573,-1489,-307,-46,-46,208,-154
0,200517,390,2751,-569,-1496,-309,-47,-46,208,-154
0,200522,390,2751,-569,-1496,-309,-47,-46,208,-154
0,200528,390,2751,-569,-1496,-309,-47,-46,208,-154
0,200534,390,2751,-569,-1496,-309,-47,-46,208,-154
0,200540,388,2749,-573,-1486,-306,-48,-38,198,-162
0,200546,388,2749,-573,-1486,-306,-48,-38,198,-162
0,200551,388,2749,-573,-1486,-306,-48,-38,198,-162
0,200557,386,2751,-568,-1490,-309,-52,-38,198,-162
0,200562,386,2751,-568,-1490,-309,-52,-38,198,-162
0,200567,386,2751,-568,-1490,-309,-52,-38,198,-162
0,200573,386,2751,-568,-1490,-309,-52,-38,198,-162
0,200579,384,2749,-575,-1485,-303,-52,-38,198,-162
0,200584,384,2749,-575,-1485,-303,-52,-38,198,-162
0,200589,384,2749,-575,-1485,-303,-52,-38,198,-162
0,200594,384,2749,-575,-1485,-303,-52,-38,198,-162
0,200599,387,2748,-568,-1485,-302,-51,-38,198,-162
0,200604,387,2748,-568,-1485,-302,-51,-38,198,-162
0,200609,387,2748,-568,-1485,-302,-51,-38,198,-162
0,200615,387,2748,-568,-1485,-302,-51,-38,198,-162
0,200621,387,2748,-571,-1485,-305,-53,-38,198,-162
0,200626,387,2748,-571,-1485,-305,-53,-38,198,-162
0,200632,387,2748,-571,-1485,-305,-53,-38,198,-162
0,200637,387,2747,-570,-1486,-312,-45,-38,198,-162
0,200642,387,2747,-570,-1486,-312,-45,-38,198,-162
0,200648,387,2747,-570,-1486,-312,-45,-38,198,-162
0,200653,387,2747,-570,-1486,-312,-45,-38,198,-162
0,200659,387,2750,-570,-1484,-301,-45,-38,198,-162
0,200665,387,2750,-570,-1484,-301,-45,-38,198,-162
0,200671,387,2750,-570,-1484,-301,-45,-38,198,-162
0,200677,387,2750,-570,-1484,-301,-45,-38,198,-162
0,200682,388,2751,-571,-1491,-304,-50,-45,201,-165
0,200688,388,2751,-571,-1491,-304,-50,-45,201,-165
0,200693,388,2751,-571,-1491,-304,-50,-45,201,-165
0,200699,386,2752,-572,-1493,-302,-48,-45,201,-165
0,200705,386,2752,-572,-1493,-302,-48,-45,201,-165
0,200710,386,2752,-572,-1493,-302,-48,-45,201,-165
0,200715,386,2752,-572,-1493,-302,-48,-45,201,-165
0,200720,386,2748,-572,-1493,-309,-50,-45,201,-165
0,200726,386,2748,-572,-1493,-309,-50,-45,201,-165
0,200731,386,2748,-572,-1493,-309,-50,-45,201,-165
0,200736,386,2749,-571,-1494,-309,-55,-45,201,-165
0,200742,386,2749,-571,-1494,-309,-55,-45,201,-165
0,200748,386,2749,-571,-1494,-309,-55,-45,201,-165
0,200753,386,2749,-571,-1494,-309,-55,-45,201,-165
0,200759,391,2750,-573,-1491,-303,-50,-45,201,-165
0,200764,391,2750,-573,-1491,-303,-50,-45,201,-165
0,200770,391,2750,-573,-1491,-303,-50,-45,201,-165
0,200775,391,2750,-573,-1491,-303,-50,-45,201,-165
0,200780,390,2748,-574,-1483,-309,-48,-45,201,-165
0,200785,390,2748,-574,-1483,-309,-48,-45,201,-165
0,200792,390,2748,-574,-1483,-309,-48,-45,201,-165
0,200797,385,2748,-568,-1489,-305,-40,-37,199,-161
0,200803,385,2748,-568,-1489,-305,-40,-37,199,-161
0,200808,385,2748,-568,-1489,-305,-40,-37,199,-161
0,200815,385,2748,-568,-1489,-305,-40,-37,199,-161
0,200820,386,2749,-570,-1501,-307,-46,-37,199,-161
0,200825,386,2749,-570,-1501,-307,-46,-37,199,-161
0,200832,386,2749,-570,-1501,-307,-46,-37,199,-161
0,200837,386,2748,-570,-1489,-305,-50,-37,199,-161
0,200842,386,2748,-570,-1489,-305,-50,-37,199,-161
0,200848,386,2748,-570,-1489,-305,-50,-37,199,-161
0,200853,386,2748,-570,-1489,-305,-50,-37,199,-161
0,200859,387,2750,-574,-1482,-302,-47,-37,199,-161
0,200864,387,2750,-574,-1482,-302,-47,-37,199,-161
0,200869,387,2750,-574,-1482,-302,-47,-37,199,-161
0,200875,387,2750,-574,-1482,-302,-47,-37,199,-161
0,200881,390,2747,-571,-1489,-306,-51,-37,199,-161
0,200886,390,2747,-571,-1489,-306,-51,-37,199,-161
0,200892,390,2747,-571,-1489,-306,-51,-37,199,-161
0,200897,389,2749,-568,-1487,-309,-45,-37,199,-161
0,200903,389,2749,-568,-1487,-309,-45,-37,199,-161
0,200908,389,2749,-568,-1487,-309,-45,-37,199,-161
0,200914,389,2749,-568,-1487,-309,-45,-37,199,-161
0,200920,388,2748,-570,-1484,-309,-53,-41,205,-161
0,200925,388,2748,-570,-1484,-309,-53,-41,205,-161
0,200931,388,2748,-570,-1484,-309,-53,-41,205,-161
0,200936,388,2748,-570,-1484,-309,-53,-41,205,-161
0,200941,388,2748,-570,-1484,-309,-53,-41,205,-161
0,200946,388,2748,-570,-1484,-309,-53,-41,205,-161
0,200951,388,2748,-570,-1484,-309,-53,-41,205,-161
0,200958,383,2751,-573,-1489,-309,-45,-41,205,-161
0,200964,383,2751,-573,-1489,-309,-45,-41,205,-161
0,200970,383,2751,-573,-1489,-309,-45,-41,205,-161
0,200975,383,2751,-573,-1489,-309,-45,-41,205,-161
0,200980,387,2749,-576,-1491,-301,-45,-41,205,-161
0,200985,387,2749,-576,-1491,-301,-45,-41,205,-161
0,200990,387,2749,-576,-1491,-301,-45,-41,205,-161
0,200995,387,2749,-576,-1491,-301,-45,-41,205,-161
0,201001,385,2747,-572,-1487,-309,-45,-41,205,-161
0,201007,385,2747,-572,-1487,-309,-45,-41,205,-161
0,201012,385,2747,-572,-1487,-309,-45,-41,205,-161
0,201018,388,2751,-567,-1490,-301,-44,-41,205,-161
0,201023,388,2751,-567,-1490,-301,-44,-41,205,-161
0,201029,388,2751,-567,-1490,-301,-44,-41,205,-161
0,201034,388,2751,-567,-1490,-301,-44,-41,205,-161
0,201039,388,2749,-573,-1492,-306,-50,-38,210,-160
0,201044,388,2749,-573,-1492,-306,-50,-38,210,-160
0,201051,388,2749,-573,-1492,-306,-50,-38,210,-160
0,201056,388,2749,-573,-1492,-306,-50,-38,210,-160
0,201061,387,2749,-567,-1489,-299,-51,-38,210,-160
0,201066,387,2749,-567,-1489,-299,-51,-38,210,-160
0,201072,387,2749,-567,-1489,-299,-51,-38,210,-160
0,201078,386,2747,-572,-1493,-307,-48,-38,210,-160
0,201083,386,2747,-572,-1493,-307,-48,-38,210,-160
0,201089,386,2747,-572,-1493,-307,-48,-38,210,-160
0,201094,386,2747,-572,-1493,-307,-48,-38,210,-160
0,201100,386,2747,-572,-1493,-307,-48,-38,210,-160
0,201105,386,2747,-572,-1493,-307,-48,-38,210,-160
0,201110,386,2747,-572,-1493,-307,-48,-38,210,-160
0,201116,386,2747,-572,-1493,-307,-48,-38,210,-160
0,201122,387,2746,-573,-1486,-309,-44,-38,210,-160
0,201127,387,2746,-573,-1486,-309,-44,-38,210,-160
0,201133,387,2746,-573,-1486,-309,-44,-38,210,-160
0,201138,387,2748,-573,-1484,-313,-50,-38,210,-160
0,201143,387,2748,-573,-1484,-313,-50,-38,210,-160
0,201149,387,2748,-573,-1484,-313,-50,-38,210,-160
0,201154,387,2748,-573,-1484,-313,-50,-38,210,-160
0,201159,386,2748,-576,-1485,-307,-56,-36,202,-162
0,201165,386,2748,-576,-1485,-307,-56,-36,202,-162
0,201171,386,2748,-576,-1485,-307,-56,-36,202,-162
0,201177,387,2749,-572,-1490,-303,-49,-36,202,-162
0,201182,387,2749,-572,-1490,-303,-49,-36,202,-162
0,201188,387,2749,-572,-1490,-303,-49,-36,202,-162
0,201193,387,2749,-572,-1490,-303,-49,-36,202,-162
0,201199,385,2749,-571,-1496,-307,-43,-36,202,-162
0,201205,385,2749,-571,-1496,-307,-43,-36,202,-162
0,201210,385,2749,-571,-1496,-307,-43,-36,202,-162
0,201217,385,2749,-571,-1496,-307,-43,-36,202,-162
0,201222,390,2750,-570,-1495,-308,-41,-36,202,-162
0,201227,390,2750,-570,-1495,-308,-41,-36,202,-162
0,201233,390,2750,-570,-1495,-308,-41,-36,202,-162
0,201238,387,2748,-567,-1495,-307,-42,-36,202,-162
0,201244,387,2748,-567,-1495,-307,-42,-36,202,-162
0,201249,387,2748,-567,-1495,-307,-42,-36,202,-162
0,201254,387,2748,-567,-1495,-307,-42,-36,202,-162
0,201262,389,2746,-573,-1494,-307,-47,-36,202,-162
0,201267,389,2746,-573,-1494,-307,-47,-36,202,-162
0,201273,389,2746,-573,-1494,-307,-47,-36,202,-162
0,201278,387,2750,-573,-1488,-304,-47,-36,202,-162
0,201283,387,2750,-573,-1488,-304,-47,-36,202,-162
0,201289,387,2750,-573,-1488,-304,-47,-36,202,-162
0,201294,387,2750,-573,-1488,-304,-47,-36,202,-162
0,201299,388,2753,-570,-1482,-303,-46,-43,197,-157
0,201306,388,2753,-570,-1482,-303,-46,-43,197,-157
0,201311,388,2753,-570,-1482,-303,-46,-43,197,-157
0,201316,388,2753,-570,-1482,-303,-46,-43,197,-157
0,201322,388,2749,-573,-1490,-307,-46,-43,197,-157
0,201327,388,2749,-573,-1490,-307,-46,-43,197,-157
0,201333,388,2749,-573,-1490,-307,-46,-43,197,-157
0,201338,385,2748,-572,-1487,-305,-46,-43,197,-157
0,201344,385,2748,-572,-1487,-305,-46,-43,197,-157
0,201349,385,2748,-572,-1487,-305,-46,-43,197,-157
0,201355,385,2748,-572,-1487,-305,-46,-43,197,-157
0,201360,388,2749,-574,-1484,-310,-56,-43,197,-157
0,201366,388,2749,-574,-1484,-310,-56,-43,197,-157
0,201371,388,2749,-574,-1484,-310,-56,-43,197,-157
0,201376,388,2749,-574,-1484,-310,-56,-43,197,-157
0,201382,387,2751,-574,-1495,-306,-54,-43,197,-157
0,201388,387,2751,-574,-1495,-306,-54,-43,197,-157
0,201394,387,2751,-574,-1495,-306,-54,-43,197,-157
0,201399,389,2751,-572,-1494,-309,-55,-43,197,-157
0,201405,389,2751,-572,-1494,-309,-55,-43,197,-157
0,201410,389,2751,-572,-1494,-309,-55,-43,197,-157
0,201416,389,2751,-572,-1494,-309,-55,-43,197,-157
0,201421,388,2750,-572,-1488,-303,-51,-33,201,-161
0,201426,388,2750,-572,-1488,-303,-51,-33,201,-161
0,201433,388,2750,-572,-1488,-303,-51,-33,201,-161
0,201438,387,2746,-569,-1490,-303,-50,-33,201,-161
0,201444,387,2746,-569,-1490,-303,-50,-33,201,-161
0,201449,387,2746,-569,-1490,-303,-50,-33,201,-161
0,201454,387,2746,-569,-1490,-303,-50,-33,201,-161
0,201460,389,2751,-571,-1485,-303,-47,-33,201,-161
0,201465,389,2751,-571,-1485,-303,-47,-33,201,-161
0,201470,389,2751,-571,-1485,-303,-47,-33,201,-161
0,201477,389,2751,-571,-1485,-303,-47,-33,201,-161
0,201482,388,2750,-571,-1498,-310,-50,-33,201,-161
0,201488,388,2750,-571,-1498,-310,-50,-33,201,-161
0,201493,388,2750,-571,-1498,-310,-50,-33,201,-161
0,201499,388,2748,-574,-1496,-311,-49,-33,201,-161
0,201504,388,2748,-574,-1496,-311,-49,-33,201,-161
0,201509,388,2748,-574,-1496,-311,-49,-33,201,-161
0,201515,388,2748,-574,-1496,-311,-49,-33,201,-161
0,201521,388,2748,-573,-1485,-309,-45,-33,201,-161
0,201526,388,2748,-573,-1485,-309,-45,-33,201,-161
0,201531,388,2748,-573,-1485,-309,-45,-33,201,-161
0,201537,386,2747,-565,-1486,-310,-46,-33,201,-161
0,201543,386,2747,-565,-1486,-310,-46,-37,205,-161
0,201548,386,2747,-565,-1486,-310,-46,-37,205,-161
0,201553,386,2747,-565,-1486,-310,-46,-37,205,-161
0,201559,388,2748,-567,-1490,-303,-51,-37,205,-161
0,201565,388,2748,-567,-1490,-303,-51,-37,205,-161
0,201570,388,2748,-567,-1490,-303,-51,-37,205,-161
0,201575,388,2748,-567,-1490,-303,-51,-37,205,-161
0,201580,388,2748,-568,-1489,-310,-44,-37,205,-161
0,201586,388,2748,-568,-1489,-310,-44,-37,205,-161
0,201592,388,2748,-568,-1489,-310,-44,-37,205,-161
0,201597,390,2749,-571,-1482,-306,-47,-37,205,-161
0,201604,390,2749,-571,-1482,-306,-47,-37,205,-161
0,201609,390,2749,-571,-1482,-306,-47,-37,205,-161
0,201615,390,2749,-571,-1482,-306,-47,-37,205,-161
0,201621,387,2749,-572,-1483,-307,-42,-37,205,-161
0,201626,387,2749,-572,-1483,-307,-42,-37,205,-161
0,201631,387,2749,-572,-1483,-307,-42,-37,205,-161
0,201636,387,2749,-572,-1483,-307,-42,-37,205,-161
0,201643,388,2748,-572,-1491,-312,-45,-37,205,-161
0,201648,388,2748,-572,-1491,-312,-45,-37,205,-161
0,201654,388,2748,-572,-1491,-312,-45,-37,205,-161
0,201659,387,2747,-568,-1484,-300,-47,-42,202,-170
0,201665,387,2747,-568,-1484,-300,-47,-42,202,-170
0,201670,387,2747,-568,-1484,-300,-47,-42,202,-170
0,201675,387,2747,-568,-1484,-300,-47,-42,202,-170
0,201680,387,2746,-572,-1498,-300,-52,-42,202,-170
0,201687,387,2746,-572,-1498,-300,-52,-42,202,-170
0,201694,387,2746,-572,-1498,-300,-52,-42,202,-170
0,201699,386,2749,-566,-1493,-308,-41,-42,202,-170
0,201704,386,2749,-566,-1493,-308,-41,-42,202,-170
0,201709,386,2749,-566,-1493,-308,-41,-42,202,-170
0,201715,386,2749,-566,-1493,-308,-41,-42,202,-170
0,201720,389,2748,-569,-1487,-312,-49,-42,202,-170
0,201725,389,2748,-569,-1487,-312,-49,-42,202,-170
0,201731,389,2748,-569,-1487,-312,-49,-42,202,-170
0,201738,387,2749,-570,-1483,-305,-46,-42,202,-170
0,201744,387,2749,-570,-1483,-305,-46,-42,202,-170
0,201749,387,2749,-570,-1483,-305,-46,-42,202,-170
0,201755,387,2749,-570,-1483,-305,-46,-42,202,-170
0,201761,389,2748,-570,-1488,-313,-48,-42,202,-170
0,201766,389,2748,-570,-1488,-313,-48,-42,202,-170
0,201773,389,2748,-570,-1488,-313,-48,-42,202,-170
0,201778,390,2748,-569,-1486,-300,-46,-41,197,-155
0,201783,390,2748,-569,-1486,-300,-46,-41,197,-155
0,201789,390,2748,-569,-1486,-300,-46,-41,197,-155
0,201794,390,2748,-569,-1486,-300,-46,-41,197,-155
0,201799,386,2750,-567,-1489,-303,-41,-41,197,-155
0,201805,386,2750,-567,-1489,-303,-41,-41,197,-155
0,201810,386,2750,-567,-1489,-303,-41,-41,197,-155
0,201816,386,2750,-567,-1489,-303,-41,-41,197,-155
0,201822,386,2749,-569,-1488,-305,-50,-41,197,-155
0,201827,386,2749,-569,-1488,-305,-50,-41,197,-155
0,201833,386,2749,-569,-1488,-305,-50,-41,197,-155
0,201838,390,2749,-566,-1492,-305,-45,-41,197,-155
0,201843,390,2749,-566,-1492,-305,-45,-41,197,-155
0,201849,390,2749,-566,-1492,-305,-45,-41,197,-155
0,201854,390,2749,-566,-1492,-305,-45,-41,197,-155
0,201861,388,2750,-569,-1491,-303,-50,-41,197,-155
0,201866,388,2750,-569,-1491,-303,-50,-41,197,-155
0,201872,388,2750,-569,-1491,-303,-50,-41,197,-155
0,201877,388,2750,-569,-1491,-303,-50,-41,197,-155
0,201883,387,2749,-572,-1491,-306,-50,-41,197,-155
0,201888,387,2749,-572,-1491,-306,-50,-41,197,-155
0,201893,387,2749,-572,-1491,-306,-50,-41,197,-155
0,201899,389,2752,-571,-1485,-310,-52,-41,197,-155
0,201905,389,2752,-571,-1485,-310,-52,-41,197,-155
0,201910,389,2752,-571,-1485,-310,-52,-41,197,-155
0,201915,389,2752,-571,-1485,-310,-52,-41,197,-155
0,201920,389,2751,-570,-1488,-304,-49,-38,204,-152
0,201926,389,2751,-570,-1488,-304,-49,-38,204,-152
0,201931,389,2751,-570,-1488,-304,-49,-38,204,-152
0,201937,389,2751,-570,-1488,-304,-49,-38,204,-152
0,201943,389,2750,-572,-1488,-307,-43,-38,204,-152
0,201948,389,2750,-572,-1488,-307,-43,-38,204,-152
0,201953,389,2750,-572,-1488,-307,-43,-38,204,-152
0,201959,386,2748,-569,-1487,-309,-44,-38,204,-152
0,201964,386,2748,-569,-1487,-309,-44,-38,204,-152
0,201969,386,2748,-569,-1487,-309,-44,-38,204,-152
0,201975,386,2748,-569,-1487,-309,-44,-38,204,-152
0,201981,386,2746,-576,-1486,-302,-41,-38,204,-152
0,201987,386,2746,-576,-1486,-302,-41,-38,204,-152
0,201992,386,2746,-576,-1486,-302,-41,-38,204,-152
0,201997,386,2746,-576,-1486,-302,-41,-38,204,-152
0,202003,387,2747,-568,-1486,-307,-41,-38,204,-152
0,202008,387,2747,-568,-1486,-307,-41,-38,204,-152
0,202013,387,2747,-568,-1486,-307,-41,-38,204,-152
0,202019,387,2748,-572,-1492,-307,-41,-38,204,-152
0,202025,387,2748,-572,-1492,-307,-41,-38,204,-152
0,202031,387,2748,-572,-1492,-307,-41,-38,204,-152
0,202036,387,2748,-572,-1492,-307,-41,-38,204,-152
0,202041,385,2751,-569,-1489,-302,-49,-45,205,-157
0,202047,385,2751,-569,-1489,-302,-49,-45,205,-157
0,202052,385,2751,-569,-1489,-302,-49,-45,205,-157
0,202058,386,2748,-571,-1491,-305,-48,-45,205,-157
0,202064,386,2748,-571,-1491,-305,-48,-45,205,-157
0,202070,386,2748,-571,-1491,-305,-48,-45,205,-157
0,202076,386,2748,-571,-1491,-305,-48,-45,205,-157
0,202081,386,2748,-573,-1481,-310,-55,-45,205,-157
0,202087,386,2748,-573,-1481,-310,-55,-45,205,-157
0,202091,386,2748,-573,-1481,-310,-55,-45,205,-157
0,202097,386,2748,-573,-1481,-310,-55,-45,205,-157
0,202102,385,2748,-576,-1490,-306,-56,-45,205,-157
0,202108,385,2748,-576,-1490,-306,-56,-45,205,-157
0,202115,385,2748,-576,-1490,-306,-56,-45,205,-157
0,202120,389,2751,-571,-1493,-309,-49,-45,205,-157
0,202125,389,2751,-571,-1493,-309,-49,-45,205,-157
0,202131,389,2751,-571,-1493,-309,-49,-45,205,-157
0,202136,389,2751,-571,-1493,-309,-49,-45,205,-157
0,202141,385,2749,-573,-1488,-302,-50,-45,205,-157
0,202147,385,2749,-573,-1488,-302,-50,-45,205,-157
0,202152,385,2749,-573,-1488,-302,-50,-45,205,-157
0,202158,388,2748,-569,-1491,-306,-46,-45,205,-157
0,202163,388,2748,-569,-1491,-306,-46,-44,200,-162
0,202168,388,2748,-569,-1491,-306,-46,-44,200,-162
0,202174,388,2748,-569,-1491,-306,-46,-44,200,-162
0,202179,387,2749,-569,-1491,-301,-45,-44,200,-162
0,202185,387,2749,-569,-1491,-301,-45,-44,200,-162
0,202191,387,2749,-569,-1491,-301,-45,-44,200,-162
0,202196,387,2749,-569,-1491,-301,-45,-44,200,-162
0,202203,387,2750,-570,-1489,-300,-36,-44,200,-162
0,202208,387,2750,-570,-1489,-300,-36,-44,200,-162
0,202213,387,2750,-570,-1489,-300,-36,-44,200,-162
0,202219,390,2748,-571,-1494,-307,-46,-44,200,-162
0,202224,390,2748,-571,-1494,-307,-46,-44,200,-162
0,202229,390,2748,-571,-1494,-307,-46,-44,200,-162
0,202234,390,2748,-571,-1494,-307,-46,-44,200,-162
0,202240,389,2747,-576,-1490,-307,-46,-44,200,-162
0,202245,389,2747,-576,-1490,-307,-46,-44,200,-162
0,202251,389,2747,-576,-1490,-307,-46,-44,200,-162
0,202257,389,2747,-576,-1490,-307,-46,-44,200,-162
0,202262,390,2749,-569,-1493,-304,-44,-44,200,-162
0,202268,390,2749,-569,-1493,-304,-44,-44,200,-162
0,202273,390,2749,-569,-1493,-304,-44,-44,200,-162
0,202279,390,2749,-564,-1486,-305,-44,-44,204,-158
0,202285,390,2749,-564,-1486,-305,-44,-44,204,-158
0,202291,390,2749,-564,-1486,-305,-44,-44,204,-158
0,202296,390,2749,-564,-1486,-305,-44,-44,204,-158
0,202302,388,2748,-567,-1478,-308,-41,-44,204,-158
0,202306,388,2748,-567,-1478,-308,-41,-44,204,-158
0,202312,388,2748,-567,-1478,-308,-41,-44,204,-158
0,202318,388,2748,-568,-1488,-310,-48,-44,204,-158
0,202323,388,2748,-568,-1488,-310,-48,-44,204,-158
0,202329,388,2748,-568,-1488,-310,-48,-44,204,-158
0,202335,388,2748,-568,-1488,-310,-48,-44,204,-158
0,202340,388,2749,-571,-1492,-304,-42,-44,204,-158
0,202346,388,2749,-571,-1492,-304,-42,-44,204,-158
0,202351,388,2749,-571,-1492,-304,-42,-44,204,-158
0,202357,386,2750,-572,-1488,-304,-45,-44,204,-158
0,202362,386,2750,-572,-1488,-304,-45,-44,204,-158
0,202369,386,2750,-572,-1488,-304,-45,-44,204,-158
0,202375,386,2750,-572,-1488,-304,-45,-44,204,-158
0,202380,386,2750,-571,-1483,-304,-46,-44,204,-158
0,202385,386,2750,-571,-1483,-304,-46,-44,204,-158
0,202391,386,2750,-571,-1483,-304,-46,-44,204,-158
0,202396,386,2750,-571,-1483,-304,-46,-44,204,-158
0,202402,389,2753,-568,-1483,-303,-48,-42,198,-160
0,202407,389,2753,-568,-1483,-303,-48,-42,198,-160
0,202414,389,2753,-568,-1483,-303,-48,-42,198,-160
0,202419,388,2751,-567,-1493,-301,-52,-42,198,-160
0,202424,388,2751,-567,-1493,-301,-52,-42,198,-160
0,202430,388,2751,-567,-1493,-301,-52,-42,198,-160
0,202435,388,2751,-567,-1493,-301,-52,-42,198,-160
0,202440,387,2752,-569,-1498,-302,-42,-42,198,-160
0,202446,387,2752,-569,-1498,-302,-42,-42,198,-160
0,202452,387,2752,-569,-1498,-302,-42,-42,198,-160
0,202458,386,2752,-568,-1499,-306,-44,-42,198,-160
0,202464,386,2752,-568,-1499,-306,-44,-42,198,-160
0,202469,386,2752,-568,-1499,-306,-44,-42,198,-160
0,202475,386,2752,-568,-1499,-306,-44,-42,198,-160
0,202480,384,2748,-572,-1494,-305,-47,-42,198,-160
0,202485,384,2748,-572,-1494,-305,-47,-42,198,-160
0,202491,384,2748,-572,-1494,-305,-47,-42,198,-160
0,202497,384,2748,-572,-1494,-305,-47,-42,198,-160
0,202502,391,2747,-569,-1486,-302,-46,-42,198,-160
0,202508,391,2747,-569,-1486,-302,-46,-42,198,-160
0,202513,391,2747,-569,-1486,-302,-46,-42,198,-160
0,202519,388,2751,-572,-1494,-301,-42,-42,198,-160
0,202524,388,2751,-572,-1494,-301,-42,-42,198,-160
0,202530,388,2751,-572,-1494,-301,-42,-42,198,-160
0,202535,388,2751,-572,-1494,-301,-42,-42,198,-160
0,202541,386,2748,-571,-1489,-302,-48,-33,203,-161
0,202547,386,2748,-571,-1489,-302,-48,-33,203,-161
0,202552,386,2748,-571,-1489,-302,-48,-33,203,-161
0,202558,388,2751,-569,-1487,-306,-47,-33,203,-161
0,202563,388,2751,-569,-1487,-306,-47,-33,203,-161
0,202569,388,2751,-569,-1487,-306,-47,-33,203,-161
0,202574,388,2751,-569,-1487,-306,-47,-33,203,-161
0,202580,388,2751,-576,-1495,-306,-44,-33,203,-161
0,202586,388,2751,-576,-1495,-306,-44,-33,203,-161
0,202591,388,2751,-576,-1495,-306,-44,-33,203,-161
0,202597,388,2751,-576,-1495,-306,-44,-33,203,-161
0,202602,386,2751,-569,-1492,-312,-52,-33,203,-161
0,202607,386,2751,-569,-1492,-312,-52,-33,203,-161
0,202612,386,2751,-569,-1492,-312,-52,-33,203,-161
0,202618,389,2748,-568,-1484,-311,-51,-33,203,-161
0,202624,389,2748,-568,-1484,-311,-51,-33,203,-161
0,202629,389,2748,-568,-1484,-311,-51,-33,203,-161
0,202634,389,2748,-568,-1484,-311,-51,-33,203,-161
0,202640,388,2747,-569,-1488,-309,-47,-33,203,-161
0,202645,388,2747,-569,-1488,-309,-47,-33,203,-161
0,202650,388,2747,-569,-1488,-309,-47,-33,203,-161
0,202656,388,2747,-569,-1488,-309,-47,-33,203,-161
0,202661,386,2748,-568,-1490,-307,-48,-38,204,-166
0,202665,386,2748,-568,-1490,-307,-48,-38,204,-166
0,202672,386,2748,-568,-1490,-307,-48,-38,204,-166
0,202677,386,2748,-568,-1490,-307,-48,-38,204,-166
0,202682,386,2749,-564,-1489,-309,-48,-38,204,-166
0,202688,386,2749,-564,-1489,-309,-48,-38,204,-166
0,202693,386,2749,-564,-1489,-309,-48,-38,204,-166
0,202699,390,2750,-566,-1496,-307,-45,-38,204,-166
0,202706,390,2750,-566,-1496,-307,-45,-38,204,-166
0,202713,390,2750,-566,-1496,-307,-45,-38,204,-166
0,202717,390,2750,-566,-1496,-307,-45,-38,204,-166
0,202723,389,2752,-573,-1488,-309,-48,-38,204,-166
0,202728,389,2752,-573,-1488,-309,-48,-38,204,-166
0,202734,389,2752,-573,-1488,-309,-48,-38,204,-166
0,202739,389,2750,-575,-1484,-308,-44,-38,204,-166
0,202745,389,2750,-575,-1484,-308,-44,-38,204,-166
0,202752,389,2750,-575,-1484,-308,-44,-38,204,-166
0,202757,389,2750,-575,-1484,-308,-44,-38,204,-166
0,202763,385,2747,-570,-1489,-312,-52,-38,204,-166
0,202768,385,2747,-570,-1489,-312,-52,-38,204,-166
0,202773,385,2747,-570,-1489,-312,-52,-38,204,-166
0,202778,387,2750,-570,-1482,-311,-44,-43,207,-161
0,202784,387,2750,-570,-1482,-311,-44,-43,207,-161
0,202790,387,2750,-570,-1482,-311,-44,-43,207,-161
0,202796,387,2750,-570,-1482,-311,-44,-43,207,-161
0,202801,388,2751,-570,-1485,-312,-47,-43,207,-161
0,202807,388,2751,-570,-1485,-312,-47,-43,207,-161
0,202812,388,2751,-570,-1485,-312,-47,-43,207,-161
0,202818,388,2749,-568,-1490,-304,-45,-43,207,-161
0,202823,388,2749,-568,-1490,-304,-45,-43,207,-161
0,202829,388,2749,-568,-1490,-304,-45,-43,207,-161
0,202834,388,2749,-568,-1490,-304,-45,-43,207,-161
0,202841,385,2752,-574,-1490,-307,-47,-43,207,-161
0,202846,385,2752,-574,-1490,-307,-47,-43,207,-161
0,202852,385,2752,-574,-1490,-307,-47,-43,207,-161
0,202857,385,2752,-574,-1490,-307,-47,-43,207,-161
0,202862,388,2748,-574,-1488,-311,-47,-43,207,-161
0,202868,388,2748,-574,-1488,-311,-47,-43,207,-161
0,202873,388,2748,-574,-1488,-311,-47,-43,207,-161
0,202878,387,2750,-569,-1487,-310,-47,-43,207,-161
0,202884,387,2750,-569,-1487,-310,-47,-43,207,-161
0,202890,387,2750,-569,-1487,-310,-47,-43,207,-161
0,202895,387,2750,-569,-1487,-310,-47,-43,207,-161
0,202900,385,2749,-570,-1491,-309,-46,-47,203,-161
0,202905,385,2749,-570,-1491,-309,-46,-47,203,-161
0,202910,385,2749,-570,-1491,-309,-46,-47,203,-161
0,202916,385,2749,-570,-1491,-309,-46,-47,203,-161
0,202921,388,2749,-570,-1487,-310,-50,-47,203,-161
0,202928,388,2749,-570,-1487,-310,-50,-47,203,-161
0,202933,388,2749,-570,-1487,-310,-50,-47,203,-161
0,202938,387,2750,-572,-1487,-314,-50,-47,203,-161
0,202943,387,2750,-572,-1487,-314,-50,-47,203,-161
0,202949,387,2750,-572,-1487,-314,-50,-47,203,-161
0,202954,387,2750,-572,-1487,-314,-50,-47,203,-161
0,202960,390,2749,-568,-1487,-303,-51,-47,203,-161
0,202966,390,2749,-568,-1487,-303,-51,-47,203,-161
0,202971,390,2749,-568,-1487,-303,-51,-47,203,-161
0,202976,390,2749,-568,-1487,-303,-51,-47,203,-161
0,202982,389,2752,-571,-1487,-300,-44,-47,203,-161
0,202987,389,2752,-571,-1487,-300,-44,-47,203,-161
0,202992,389,2752,-571,-1487,-300,-44,-47,203,-161
0,202998,386,2749,-574,-1492,-309,-47,-47,203,-161
0,203003,386,2749,-574,-1492,-309,-47,-47,203,-161
0,203009,386,2749,-574,-1492,-309,-47,-47,203,-161
0,203014,386,2749,-574,-1492,-309,-47,-47,203,-161
0,203019,390,2752,-576,-1492,-311,-48,-47,203,-161
0,203024,390,2752,-576,-1492,-311,-48,-47,203,-161
0,203030,390,2752,-576,-1492,-311,-48,-47,203,-161
0,203035,390,2752,-576,-1492,-311,-48,-47,203,-161
0,203040,389,2748,-568,-1482,-310,-46,-40,204,-162
0,203047,389,2748,-568,-1482,-310,-46,-40,204,-162
0,203053,389,2748,-568,-1482,-310,-46,-40,204,-162
0,203058,389,2749,-572,-1482,-303,-46,-40,204,-162
0,203064,389,2749,-572,-1482,-303,-46,-40,204,-162
0,203069,389,2749,-572,-1482,-303,-46,-40,204,-162
0,203074,389,2749,-572,-1482,-303,-46,-40,204,-162
0,203079,386,2750,-573,-1486,-305,-50,-40,204,-162
0,203085,386,2750,-573,-1486,-305,-50,-40,204,-162
0,203090,386,2750,-573,-1486,-305,-50,-40,204,-162
0,203097,386,2750,-573,-1486,-305,-50,-40,204,-162
0,203102,386,2750,-573,-1486,-305,-50,-40,204,-162
0,203107,386,2750,-573,-1486,-305,-50,-40,204,-162
0,203112,386,2750,-573,-1486,-305,-50,-40,204,-162
0,203118,387,2748,-572,-1489,-305,-41,-40,204,-162
0,203123,387,2748,-572,-1489,-305,-41,-40,204,-162
0,203128,387,2748,-572,-1489,-305,-41,-40,204,-162
0,203133,387,2748,-572,-1489,-305,-41,-40,204,-162
0,203140,387,2748,-574,-1493,-304,-45,-40,204,-162
0,203145,387,2748,-574,-1493,-304,-45,-40,204,-162
0,203150,387,2748,-574,-1493,-304,-45,-40,204,-162
0,203155,387,2748,-574,-1493,-304,-45,-40,204,-162
0,203160,390,2750,-568,-1490,-310,-53,-40,202,-160
0,203166,390,2750,-568,-1490,-310,-53,-40,202,-160
0,203171,390,2750,-568,-1490,-310,-53,-40,202,-160
0,203176,390,2750,-568,-1490,-310,-53,-40,202,-160
0,203182,388,2748,-569,-1489,-313,-54,-40,202,-160
0,203188,388,2748,-569,-1489,-313,-54,-40,202,-160
0,203193,388,2748,-569,-1489,-313,-54,-40,202,-160
0,203198,388,2751,-571,-1491,-304,-41,-40,202,-160
0,203203,388,2751,-571,-1491,-304,-41,-40,202,-160
0,203208,388,2751,-571,-1491,-304,-41,-40,202,-160
0,203214,388,2751,-571,-1491,-304,-41,-40,202,-160
0,203219,388,2748,-572,-1495,-306,-44,-40,202,-160
0,203226,388,2748,-572,-1495,-306,-44,-40,202,-160
0,203231,388,2748,-572,-1495,-306,-44,-40,202,-160
0,203237,388,2748,-572,-1495,-306,-44,-40,202,-160
0,203242,387,2750,-566,-1486,-309,-45,-40,202,-160
0,203247,387,2750,-566,-1486,-309,-45,-40,202,-160
0,203253,387,2750,-566,-1486,-309,-45,-40,202,-160
0,203258,387,2752,-574,-1487,-310,-50,-40,202,-160
0,203264,387,2752,-574,-1487,-310,-50,-40,202,-160
0,203270,387,2752,-574,-1487,-310,-50,-40,202,-160
0,203275,387,2752,-574,-1487,-310,-50,-40,202,-160
0,203280,388,2751,-569,-1489,-307,-53,-35,197,-163
0,203286,388,2751,-569,-1489,-307,-53,-35,197,-163
0,203291,388,2751,-569,-1489,-307,-53,-35,197,-163
0,203296,388,2751,-569,-1489,-307,-53,-35,197,-163
0,203302,387,2750,-571,-1487,-305,-46,-35,197,-163
0,203309,387,2750,-571,-1487,-305,-46,-35,197,-163
0,203314,387,2750,-571,-1487,-305,-46,-35,197,-163
0,203320,388,2751,-569,-1494,-298,-49,-35,197,-163
0,203325,388,2751,-569,-1494,-298,-49,-35,197,-163
0,203331,388,2751,-569,-1494,-298,-49,-35,197,-163
0,203336,388,2751,-569,-1494,-298,-49,-35,197,-163
0,203341,389,2750,-570,-1495,-304,-45,-35,197,-163
0,203347,389,2750,-570,-1495,-304,-45,-35,197,-163
0,203353,389,2750,-570,-1495,-304,-45,-35,197,-163
0,203359,386,2752,-566,-1490,-314,-43,-35,197,-163
0,203364,386,2752,-566,-1490,-314,-43,-35,197,-163
0,203369,386,2752,-566,-1490,-314,-43,-35,197,-163
0,203374,386,2752,-566,-1490,-314,-43,-35,197,-163
0,203380,385,2752,-572,-1487,-307,-41,-35,197,-163
0,203385,385,2752,-572,-1487,-307,-41,-35,197,-163
0,203392,385,2752,-572,-1487,-307,-41,-35,197,-163
0,203397,385,2752,-572,-1487,-307,-41,-35,197,-163
0,203402,387,2750,-569,-1488,-306,-40,-36,204,-166
0,203408,387,2750,-569,-1488,-306,-40,-36,204,-166
0,203413,387,2750,-569,-1488,-306,-40,-36,204,-166
0,203419,390,2750,-568,-1495,-309,-50,-36,204,-166
0,203424,390,2750,-568,-1495,-309,-50,-36,204,-166
0,203429,390,2750,-568,-1495,-309,-50,-36,204,-166
0,203435,390,2750,-568,-1495,-309,-50,-36,204,-166
0,203441,390,2750,-568,-1495,-309,-50,-36,204,-166
0,203446,390,2750,-568,-1495,-309,-50,-36,204,-166
0,203451,390,2750,-568,-1495,-309,-50,-36,204,-166
0,203457,390,2750,-568,-1495,-309,-50,-36,204,-166
0,203463,389,2745,-570,-1482,-310,-42,-36,204,-166
0,203467,389,2745,-570,-1482,-310,-42,-36,204,-166
0,203473,389,2745,-570,-1482,-310,-42,-36,204,-166
0,203479,387,2747,-567,-1488,-310,-46,-36,204,-166
0,203484,387,2747,-567,-1488,-310,-46,-36,204,-166
0,203490,387,2747,-567,-1488,-310,-46,-36,204,-166
0,203495,387,2747,-567,-1488,-310,-46,-36,204,-166
0,203500,389,2754,-568,-1484,-307,-42,-36,204,-166
0,203506,389,2754,-568,-1484,-307,-42,-36,204,-166
0,203511,389,2754,-568,-1484,-307,-42,-36,204,-166
0,203516,389,2754,-568,-1484,-307,-42,-36,204,-166
0,203523,387,2749,-565,-1483,-305,-47,-44,212,-162
0,203528,387,2749,-565,-1483,-305,-47,-44,212,-162
0,203534,387,2749,-565,-1483,-305,-47,-44,212,-162
0,203539,390,2751,-571,-1488,-309,-47,-44,212,-162
0,203544,390,2751,-571,-1488,-309,-47,-44,212,-162
0,203549,390,2751,-571,-1488,-309,-47,-44,212,-162
0,203555,390,2751,-571,-1488,-309,-47,-44,212,-162
0,203560,387,2751,-571,-1487,-311,-43,-44,212,-162
0,203566,387,2751,-571,-1487,-311,-43,-44,212,-162
0,203572,387,2751,-571,-1487,-311,-43,-44,212,-162
0,203577,387,2751,-571,-1487,-311,-43,-44,212,-162
0,203583,391,2753,-572,-1489,-315,-37,-44,212,-162
0,203588,391,2753,-572,-1489,-315,-37,-44,212,-162
0,203594,391,2753,-572,-1489,-315,-37,-44,212,-162
0,203599,389,2749,-570,-1491,-306,-43,-44,212,-162
0,203606,389,2749,-570,-1491,-306,-43,-44,212,-162
0,203611,389,2749,-570,-1491,-306,-43,-44,212,-162
0,203616,389,2749,-570,-1491,-306,-43,-44,212,-162
0,203621,387,2751,-570,-1487,-307,-53,-44,212,-162
0,203626,387,2751,-570,-1487,-307,-53,-44,212,-162
0,203632,387,2751,-570,-1487,-307,-53,-44,212,-162
0,203637,387,2751,-570,-1487,-307,-53,-44,212,-162
0,203643,387,2750,-568,-1495,-310,-50,-44,212,-162
0,203650,387,2750,-568,-1495,-310,-50,-44,212,-162
0,203655,387,2750,-568,-1495,-310,-50,-44,212,-162
0,203661,389,2749,-570,-1483,-308,-47,-46,210,-156
0,203667,389,2749,-570,-1483,-308,-47,-46,210,-156
0,203672,389,2749,-570,-1483,-308,-47,-46,210,-156
0,203677,389,2749,-570,-1483,-308,-47,-46,210,-156
0,203683,389,2749,-569,-1485,-303,-53,-46,210,-156
0,203688,389,2749,-569,-1485,-303,-53,-46,210,-156
0,203694,389,2749,-569,-1485,-303,-53,-46,210,-156
0,203700,387,2749,-571,-1484,-309,-47,-46,210,-156
0,203705,387,2749,-571,-1484,-309,-47,-46,210,-156
0,203711,387,2749,-571,-1484,-309,-47,-46,210,-156
0,203716,387,2749,-571,-1484,-309,-47,-46,210,-156
0,203722,384,2746,-573,-1495,-308,-47,-46,210,-156
0,203727,384,2746,-573,-1495,-308,-47,-46,210,-156
0,203732,384,2746,-573,-1495,-308,-47,-46,210,-156
0,203739,387,2749,-569,-1498,-310,-47,-46,210,-156
0,203744,387,2749,-569,-1498,-310,-47,-46,210,-156
0,203750,387,2749,-569,-1498,-310,-47,-46,210,-156
0,203758,387,2749,-569,-1498,-310,-47,-46,210,-156
0,203763,389,2749,-572,-1496,-306,-44,-46,210,-156
0,203769,389,2749,-572,-1496,-306,-44,-46,210,-156
0,203774,389,2749,-572,-1496,-306,-44,-46,210,-156
0,203781,389,2747,-570,-1489,-306,-44,-43,203,-159
0,203786,389,2747,-570,-1489,-306,-44,-43,203,-159
0,203792,389,2747,-570,-1489,-306,-44,-43,203,-159
0,203797,389,2747,-570,-1489,-306,-44,-43,203,-159
0,203803,390,2749,-569,-1494,-305,-39,-43,203,-159
0,203808,390,2749,-569,-1494,-305,-39,-43,203,-159
0,203813,390,2749,-569,-1494,-305,-39,-43,203,-159
0,203819,387,2749,-568,-1490,-304,-50,-43,203,-159
0,203825,387,2749,-568,-1490,-304,-50,-43,203,-159
0,203830,387,2749,-568,-1490,-304,-50,-43,203,-159
0,203836,387,2749,-568,-1490,-304,-50,-43,203,-159
0,203841,389,2749,-572,-1489,-313,-50,-43,203,-159
0,203846,389,2749,-572,-1489,-313,-50,-43,203,-159
0,203852,389,2749,-572,-1489,-313,-50,-43,203,-159
0,203857,389,2749,-572,-1489,-313,-50,-43,203,-159
0,203864,385,2750,-568,-1491,-313,-46,-43,203,-159
0,203869,385,2750,-568,-1491,-313,-46,-43,203,-159
0,203874,385,2750,-568,-1491,-313,-46,-43,203,-159
0,203880,386,2749,-576,-1489,-315,-52,-43,203,-159
0,203885,386,2749,-576,-1489,-315,-52,-43,203,-159
0,203891,386,2749,-576,-1489,-315,-52,-43,203,-159
0,203896,386,2749,-576,-1489,-315,-52,-43,203,-159
0,203902,383,2753,-572,-1484,-307,-49,-43,203,-165
0,203909,383,2753,-572,-1484,-307,-49,-43,203,-165
0,203914,383,2753,-572,-1484,-307,-49,-43,203,-165
0,203920,388,2751,-571,-1494,-316,-50,-43,203,-165
0,203925,388,2751,-571,-1494,-316,-50,-43,203,-165
0,203930,388,2751,-571,-1494,-316,-50,-43,203,-165
0,203935,388,2751,-571,-1494,-316,-50,-43,203,-165
0,203941,387,2751,-569,-1490,-308,-49,-43,203,-165
0,203948,387,2751,-569,-1490,-308,-49,-43,203,-165
0,203953,387,2751,-569,-1490,-308,-49,-43,203,-165
0,203958,387,2751,-569,-1490,-308,-49,-43,203,-165
0,203964,390,2751,-576,-1488,-302,-47,-43,203,-165
0,203969,390,2751,-576,-1488,-302,-47,-43,203,-165
0,203974,390,2751,-576,-1488,-302,-47,-43,203,-165
0,203980,389,2752,-572,-1490,-313,-46,-43,203,-165
0,203985,389,2752,-572,-1490,-313,-46,-43,203,-165
0,203991,389,2752,-572,-1490,-313,-46,-43,203,-165
0,203997,389,2752,-572,-1490,-313,-46,-43,203,-165
0,204002,388,2751,-569,-1489,-310,-44,-43,203,-165
0,204007,388,2751,-569,-1489,-310,-44,-43,203,-165
0,204013,388,2751,-569,-1489,-310,-44,-43,203,-165
0,204018,389,2752,-572,-1494,-309,-49,-38,206,-166
0,204023,389,2752,-572,-1494,-309,-49,-38,206,-166
0,204029,389,2752,-572,-1494,-309,-49,-38,206,-166
0,204035,389,2752,-572,-1494,-309,-49,-38,206,-166
0,204041,387,2749,-571,-1487,-308,-45,-38,206,-166
0,204047,387,2749,-571,-1487,-308,-45,-38,206,-166
0,204052,387,2749,-571,-1487,-308,-45,-38,206,-166
0,204058,387,2749,-571,-1487,-308,-45,-38,206,-166
0,204063,388,2747,-563,-1488,-309,-46,-38,206,-166
0,204068,388,2747,-563,-1488,-309,-46,-38,206,-166
0,204075,388,2747,-563,-1488,-309,-46,-38,206,-166
0,204080,390,2751,-575,-1489,-307,-43,-38,206,-166
0,204085,390,2751,-575,-1489,-307,-43,-38,206,-166
0,204091,390,2751,-575,-1489,-307,-43,-38,206,-166
0,204096,390,2751,-575,-1489,-307,-43,-38,206,-166
0,204102,387,2750,-569,-1488,-301,-40,-38,206,-166
0,204107,387,2750,-569,-1488,-301,-40,-38,206,-166
0,204113,387,2750,-569,-1488,-301,-40,-38,206,-166
0,204120,388,2751,-570,-1486,-304,-46,-38,206,-166
0,204125,388,2751,-570,-1486,-304,-46,-38,206,-166
0,204130,388,2751,-570,-1486,-304,-46,-38,206,-166
0,204136,388,2751,-570,-1486,-304,-46,-38,206,-166
0,204141,388,2752,-568,-1488,-305,-37,-43,205,-153
0,204147,388,2752,-568,-1488,-305,-37,-43,205,-153
0,204152,388,2752,-568,-1488,-305,-37,-43,205,-153
0,204157,388,2752,-568,-1488,-305,-37,-43,205,-153
0,204164,388,2751,-569,-1492,-306,-45,-43,205,-153
0,204169,388,2751,-569,-1492,-306,-45,-43,205,-153
0,204174,388,2751,-569,-1492,-306,-45,-43,205,-153
0,204180,389,2752,-568,-1492,-301,-44,-43,205,-153
0,204185,389,2752,-568,-1492,-301,-44,-43,205,-153
0,204190,389,2752,-568,-1492,-301,-44,-43,205,-153
0,204196,389,2752,-568,-1492,-301,-44,-43,205,-153
0,204201,388,2749,-568,-1494,-308,-47,-43,205,-153
0,204207,388,2749,-568,-1494,-308,-47,-43,205,-153
0,204213,388,2749,-568,-1494,-308,-47,-43,205,-153
0,204218,387,2748,-573,-1496,-302,-44,-43,205,-153
0,204224,387,2748,-573,-1496,-302,-44,-43,205,-153
0,204229,387,2748,-573,-1496,-302,-44,-43,205,-153
0,204234,387,2748,-573,-1496,-302,-44,-43,205,-153
0,204241,389,2750,-575,-1491,-306,-46,-43,205,-153
0,204247,389,2750,-575,-1491,-306,-46,-43,205,-153
0,204252,389,2750,-575,-1491,-306,-46,-43,205,-153
0,204257,389,2750,-575,-1491,-306,-46,-43,205,-153
0,204263,386,2749,-571,-1491,-308,-49,-43,205,-153
0,204268,386,2749,-571,-1491,-308,-49,-43,205,-153
0,204274,386,2749,-571,-1491,-308,-49,-43,205,-153
0,204279,387,2749,-567,-1494,-306,-46,-40,208,-162
0,204284,387,2749,-567,-1494,-306,-46,-40,208,-162
0,204291,387,2749,-567,-1494,-306,-46,-40,208,-162
0,204296,387,2749,-567,-1494,-306,-46,-40,208,-162
0,204302,388,2745,-568,-1494,-300,-44,-40,208,-162
0,204307,388,2745,-568,-1494,-300,-44,-40,208,-162
0,204313,388,2745,-568,-1494,-300,-44,-40,208,-162
0,204319,386,2750,-572,-1484,-303,-46,-40,208,-162
0,204324,386,2750,-572,-1484,-303,-46,-40,208,-162
0,204331,386,2750,-572,-1484,-303,-46,-40,208,-162
0,204337,386,2750,-572,-1484,-303,-46,-40,208,-162
0,204342,388,2749,-572,-1492,-303,-45,-40,208,-162
0,204348,388,2749,-572,-1492,-303,-45,-40,208,-162
0,204353,388,2749,-572,-1492,-303,-45,-40,208,-162
0,204358,388,2747,-573,-1498,-302,-45,-40,208,-162
0,204364,388,2747,-573,-1498,-302,-45,-40,208,-162
0,204369,388,2747,-573,-1498,-302,-45,-40,208,-162
0,204376,388,2747,-573,-1498,-302,-45,-40,208,-162
0,204381,391,2750,-568,-1497,-307,-46,-40,208,-162
0,204387,391,2750,-568,-1497,-307,-46,-40,208,-162
0,204393,391,2750,-568,-1497,-307,-46,-40,208,-162
0,204401,391,2751,-567,-1494,-304,-45,-38,198,-164
0,204408,391,2751,-567,-1494,-304,-45,-38,198,-164
0,204414,391,2751,-567,-1494,-304,-45,-38,198,-164
0,204420,389,2748,-571,-1477,-307,-49,-38,198,-164
0,204426,389,2748,-571,-1477,-307,-49,-38,198,-164
0,204431,389,2748,-571,-1477,-307,-49,-38,198,-164
0,204437,389,2748,-571,-1477,-307,-49,-38,198,-164
0,204442,388,2750,-574,-1490,-306,-56,-38,198,-164
0,204448,388,2750,-574,-1490,-306,-56,-38,198,-164
0,204453,388,2750,-574,-1490,-306,-56,-38,198,-164
0,204460,389,2749,-573,-1493,-305,-51,-38,198,-164
0,204465,389,2749,-573,-1493,-305,-51,-38,198,-164
0,204471,389,2749,-573,-1493,-305,-51,-38,198,-164
0,204476,389,2749,-573,-1493,-305,-51,-38,198,-164
0,204481,384,2749,-570,-1491,-306,-44,-38,198,-164
0,204487,384,2749,-570,-1491,-306,-44,-38,198,-164
0,204492,384,2749,-570,-1491,-306,-44,-38,198,-164
0,204498,384,2749,-570,-1491,-306,-44,-38,198,-164
0,204504,386,2748,-569,-1484,-305,-44,-38,198,-164
0,204510,386,2748,-569,-1484,-305,-44,-38,198,-164
0,204515,386,2748,-569,-1484,-305,-44,-38,198,-164
0,204521,388,2751,-569,-1487,-312,-47,-37,203,-165
0,204526,388,2751,-569,-1487,-312,-47,-37,203,-165
0,204532,388,2751,-569,-1487,-312,-47,-37,203,-165
0,204537,388,2751,-569,-1487,-312,-47,-37,203,-165
0,204542,387,2749,-571,-1487,-312,-53,-37,203,-165
0,204549,387,2749,-571,-1487,-312,-53,-37,203,-165
0,204554,387,2749,-571,-1487,-312,-53,-37,203,-165
0,204559,386,2752,-575,-1481,-307,-49,-37,203,-165
0,204565,386,2752,-575,-1481,-307,-49,-37,203,-165
0,204570,386,2752,-575,-1481,-307,-49,-37,203,-165
0,204576,386,2752,-575,-1481,-307,-49,-37,203,-165
0,204581,387,2751,-567,-1488,-307,-48,-37,203,-165
0,204587,387,2751,-567,-1488,-307,-48,-37,203,-165
0,204593,387,2751,-567,-1488,-307,-48,-37,203,-165
0,204598,387,2751,-567,-1488,-307,-48,-37,203,-165
0,204603,389,2749,-570,-1487,-298,-44,-37,203,-165
0,204609,389,2749,-570,-1487,-298,-44,-37,203,-165
0,204614,389,2749,-570,-1487,-298,-44,-37,203,-165
0,204619,386,2751,-570,-1494,-302,-48,-37,203,-165
0,204625,386,2751,-570,-1494,-302,-48,-37,203,-165
0,204631,386,2751,-570,-1494,-302,-48,-37,203,-165
0,204636,386,2751,-570,-1494,-302,-48,-37,203,-165
0,204641,385,2751,-567,-1489,-306,-55,-42,200,-162
0,204647,385,2751,-567,-1489,-306,-55,-42,200,-162
0,204652,385,2751,-567,-1489,-306,-55,-42,200,-162
0,204657,385,2751,-567,-1489,-306,-55,-42,200,-162
0,204663,386,2745,-572,-1485,-309,-49,-42,200,-162
0,204669,386,2745,-572,-1485,-309,-49,-42,200,-162
0,204675,386,2745,-572,-1485,-309,-49,-42,200,-162
0,204680,387,2747,-570,-1482,-309,-46,-42,200,-162
0,204686,387,2747,-570,-1482,-309,-46,-42,200,-162
0,204691,387,2747,-570,-1482,-309,-46,-42,200,-162
0,204697,387,2747,-570,-1482,-309,-46,-42,200,-162
0,204702,386,2752,-570,-1491,-305,-51,-42,200,-162
0,204707,386,2752,-570,-1491,-305,-51,-42,200,-162
0,204713,386,2752,-570,-1491,-305,-51,-42,200,-162
0,204719,388,2749,-573,-1494,-307,-42,-42,200,-162
0,204725,388,2749,-573,-1494,-307,-42,-42,200,-162
0,204730,388,2749,-573,-1494,-307,-42,-42,200,-162
0,204736,388,2749,-573,-1494,-307,-42,-42,200,-162
0,204741,386,2750,-576,-1489,-301,-45,-42,200,-162
0,204746,386,2750,-576,-1489,-301,-45,-42,200,-162
0,204751,386,2750,-576,-1489,-301,-45,-42,200,-162
0,204756,386,2750,-576,-1489,-301,-45,-42,200,-162
0,204763,385,2748,-573,-1486,-310,-42,-34,200,-160
0,204768,385,2748,-573,-1486,-310,-42,-34,200,-160
0,204774,385,2748,-573,-1486,-310,-42,-34,200,-160
0,204778,389,2748,-566,-1490,-315,-44,-34,200,-160
0,204784,389,2748,-566,-1490,-315,-44,-34,200,-160
0,204789,389,2748,-566,-1490,-315,-44,-34,200,-160
0,204794,389,2748,-566,-1490,-315,-44,-34,200,-160
0,204800,387,2746,-569,-1492,-308,-42,-34,200,-160
0,204806,387,2746,-569,-1492,-308,-42,-34,200,-160
0,204811,387,2746,-569,-1492,-308,-42,-34,200,-160
0,204817,387,2746,-569,-1492,-308,-42,-34,200,-160
0,204822,388,2747,-573,-1496,-318,-48,-34,200,-160
0,204827,388,2747,-573,-1496,-318,-48,-34,200,-160
0,204833,388,2747,-573,-1496,-318,-48,-34,200,-160
0,204838,388,2749,-570,-1490,-309,-45,-34,200,-160
0,204845,388,2749,-570,-1490,-309,-45,-34,200,-160
0,204850,388,2749,-570,-1490,-309,-45,-34,200,-160
0,204855,388,2749,-570,-1490,-309,-45,-34,200,-160
0,204860,386,2749,-569,-1496,-310,-48,-34,200,-160
0,204866,386,2749,-569,-1496,-310,-48,-34,200,-160
0,204871,386,2749,-569,-1496,-310,-48,-34,200,-160
0,204877,386,2749,-569,-1496,-310,-48,-34,200,-160
0,204882,388,2749,-569,-1489,-309,-50,-34,200,-160
0,204888,388,2749,-569,-1489,-309,-50,-34,200,-160
0,204893,388,2749,-569,-1489,-309,-50,-34,200,-160
0,204899,383,2750,-570,-1489,-309,-42,-44,204,-160
0,204904,383,2750,-570,-1489,-309,-42,-44,204,-162
0,204910,383,2750,-570,-1489,-309,-42,-44,204,-162
0,204916,383,2750,-570,-1489,-309,-42,-44,204,-162
0,204921,386,2752,-570,-1489,-307,-45,-44,204,-162
0,204926,386,2752,-570,-1489,-307,-45,-44,204,-162
0,204932,386,2752,-570,-1489,-307,-45,-44,204,-162
0,204938,386,2752,-570,-1489,-307,-45,-44,204,-162
0,204943,387,2749,-569,-1492,-308,-46,-44,204,-162
0,204948,387,2749,-569,-1492,-308,-46,-44,204,-162
0,204954,387,2749,-569,-1492,-308,-46,-44,204,-162
0,204959,387,2749,-572,-1492,-305,-50,-44,204,-162
0,204965,387,2749,-572,-1492,-305,-50,-44,204,-162
0,204971,387,2749,-572,-1492,-305,-50,-44,204,-162
0,204976,387,2749,-572,-1492,-305,-50,-44,204,-162
0,204982,385,2750,-566,-1486,-308,-48,-44,204,-162
0,204987,385,2750,-566,-1486,-308,-48,-44,204,-162
0,204992,385,2750,-566,-1486,-308,-48,-44,204,-162
0,204998,385,2750,-566,-1486,-308,-48,-44,204,-162
0,205003,385,2748,-572,-1495,-302,-46,-44,204,-162
0,205008,385,2748,-572,-1495,-302,-46,-44,204,-162
0,205015,385,2748,-572,-1495,-302,-46,-44,204,-162
0,205020,387,2749,-571,-1491,-306,-46,-32,202,-162
0,205025,387,2749,-571,-1491,-306,-46,-32,202,-162
0,205031,387,2749,-571,-1491,-306,-46,-32,202,-162
0,205037,387,2749,-571,-1491,-306,-46,-32,202,-162
0,205043,387,2747,-568,-1489,-310,-41,-32,202,-162
0,205049,387,2747,-568,-1489,-310,-41,-32,202,-162
0,205056,387,2747,-568,-1489,-310,-41,-32,202,-162
0,205062,387,2752,-567,-1487,-306,-48,-32,202,-162
0,205067,387,2752,-567,-1487,-306,-48,-32,202,-162
0,205072,387,2752,-567,-1487,-306,-48,-32,202,-162
0,205077,387,2752,-567,-1487,-306,-48,-32,202,-162
0,205083,388,2749,-575,-1487,-311,-50,-32,202,-162
0,205088,388,2749,-575,-1487,-311,-50,-32,202,-162
0,205094,388,2749,-575,-1487,-311,-50,-32,202,-162
0,205100,388,2750,-574,-1492,-311,-46,-32,202,-162
0,205105,388,2750,-574,-1492,-311,-46,-32,202,-162
0,205111,388,2750,-574,-1492,-311,-46,-32,202,-162
0,205116,388,2750,-574,-1492,-311,-46,-32,202,-162
0,205122,387,2751,-567,-1491,-302,-41,-32,202,-162
0,205127,387,2751,-567,-1491,-302,-41,-32,202,-162
0,205133,387,2751,-567,-1491,-302,-41,-32,202,-162
0,205138,387,2751,-567,-1491,-302,-41,-32,202,-162
0,205145,388,2752,-571,-1484,-302,-49,-37,197,-161
0,205150,388,2752,-571,-1484,-302,-49,-37,197,-161
0,205155,388,2752,-571,-1484,-302,-49,-37,197,-161
0,205161,388,2749,-567,-1488,-309,-49,-37,197,-161
0,205166,388,2749,-567,-1488,-309,-49,-37,197,-161
0,205172,388,2749,-567,-1488,-309,-49,-37,197,-161
0,205177,388,2749,-567,-1488,-309,-49,-37,197,-161
0,205184,388,2747,-567,-1485,-308,-44,-37,197,-161
0,205189,388,2747,-567,-1485,-308,-44,-37,197,-161
0,205194,388,2747,-567,-1485,-308,-44,-37,197,-161
0,205199,387,2751,-572,-1492,-310,-50,-37,197,-161
0,205205,387,2751,-572,-1492,-310,-50,-37,197,-161
0,205210,387,2751,-572,-1492,-310,-50,-37,197,-161
0,205216,387,2751,-572,-1492,-310,-50,-37,197,-161
0,205221,390,2748,-573,-1494,-301,-48,-37,197,-161
0,205227,390,2748,-573,-1494,-301,-48,-37,197,-161
0,205233,390,2748,-573,-1494,-301,-48,-37,197,-161
0,205238,390,2748,-573,-1494,-301,-48,-37,197,-161
0,205243,386,2749,-567,-1490,-306,-52,-37,197,-161
0,205249,386,2749,-567,-1490,-306,-52,-37,197,-161
0,205254,386,2749,-567,-1490,-306,-52,-37,197,-161
0,205260,386,2751,-571,-1488,-305,-45,-49,207,-163
0,205265,386,2751,-571,-1488,-305,-45,-49,207,-163
0,205272,386,2751,-571,-1488,-305,-45,-49,207,-163
0,205277,386,2751,-571,-1488,-305,-45,-49,207,-163
0,205282,387,2747,-565,-1490,-309,-47,-49,207,-163
0,205288,387,2747,-565,-1490,-309,-47,-49,207,-163
0,205293,387,2747,-565,-1490,-309,-47,-49,207,-163
0,205298,387,2751,-574,-1491,-309,-51,-49,207,-163
0,205304,387,2751,-574,-1491,-309,-51,-49,207,-163
0,205309,387,2751,-574,-1491,-309,-51,-49,207,-163
0,205316,387,2751,-574,-1491,-309,-51,-49,207,-163
0,205321,388,2749,-577,-1490,-309,-46,-49,207,-163
0,205326,388,2749,-577,-1490,-309,-46,-49,207,-163
0,205332,388,2749,-577,-1490,-309,-46,-49,207,-163
0,205337,388,2749,-577,-1490,-309,-46,-49,207,-163
0,205342,386,2751,-575,-1480,-302,-55,-49,207,-163
0,205348,386,2751,-575,-1480,-302,-55,-49,207,-163
0,205353,386,2751,-575,-1480,-302,-55,-49,207,-163
0,205359,389,2750,-567,-1486,-307,-51,-49,207,-163
0,205365,389,2750,-567,-1486,-307,-51,-49,207,-163
0,205370,389,2750,-567,-1486,-307,-51,-49,207,-163
0,205376,389,2750,-567,-1486,-307,-51,-49,207,-163
0,205381,388,2749,-565,-1480,-306,-50,-49,207,-163
0,205386,388,2749,-565,-1480,-306,-50,-49,207,-163
0,205392,388,2749,-565,-1480,-306,-50,-49,207,-163
0,205399,388,2749,-565,-1480,-306,-50,-49,207,-163
0,205404,388,2751,-569,-1485,-314,-43,-31,207,-161
0,205409,388,2751,-569,-1485,-314,-43,-31,207,-161
0,205415,388,2751,-569,-1485,-314,-43,-31,207,-161
0,205420,388,2747,-568,-1493,-307,-52,-31,207,-161
0,205426,388,2747,-568,-1493,-307,-52,-31,207,-161
0,205431,388,2747,-568,-1493,-307,-52,-31,207,-161
0,205437,388,2747,-568,-1493,-307,-52,-31,207,-161
0,205443,387,2751,-568,-1493,-306,-48,-31,207,-161
0,205448,387,2751,-568,-1493,-306,-48,-31,207,-161
0,205454,387,2751,-568,-1493,-306,-48,-31,207,-161
0,205459,386,2749,-573,-1493,-302,-47,-31,207,-161
0,205464,386,2749,-573,-1493,-302,-47,-31,207,-161
0,205469,386,2749,-573,-1493,-302,-47,-31,207,-161
0,205474,386,2749,-573,-1493,-302,-47,-31,207,-161
0,205479,387,2750,-569,-1491,-302,-46,-31,207,-161
0,205486,387,2750,-569,-1491,-302,-46,-31,207,-161
0,205491,387,2750,-569,-1491,-302,-46,-31,207,-161
0,205496,387,2750,-569,-1491,-302,-46,-31,207,-161
0,205502,390,2747,-568,-1499,-304,-45,-31,207,-161
0,205507,390,2747,-568,-1499,-304,-45,-31,207,-161
0,205513,390,2747,-568,-1499,-304,-45,-31,207,-161
0,205518,390,2748,-571,-1491,-306,-48,-38,196,-161
0,205524,390,2748,-571,-1491,-306,-48,-38,196,-164
0,205530,390,2748,-571,-1491,-306,-48,-38,196,-164
0,205536,390,2748,-571,-1491,-306,-48,-38,196,-164
0,205541,390,2752,-571,-1487,-310,-46,-38,196,-164
0,205546,390,2752,-571,-1487,-310,-46,-38,196,-164
0,205552,390,2752,-571,-1487,-310,-46,-38,196,-164
0,205557,390,2752,-571,-1487,-310,-46,-38,196,-164
0,205562,390,2748,-570,-1482,-305,-47,-38,196,-164
0,205568,390,2748,-570,-1482,-305,-47,-38,196,-164
0,205574,390,2748,-570,-1482,-305,-47,-38,196,-164
0,205579,390,2750,-566,-1489,-301,-49,-38,196,-164
0,205584,390,2750,-566,-1489,-301,-49,-38,196,-164
0,205589,390,2750,-566,-1489,-301,-49,-38,196,-164
0,205595,390,2750,-566,-1489,-301,-49,-38,196,-164
0,205600,384,2750,-564,-1495,-304,-49,-38,196,-164
0,205605,384,2750,-564,-1495,-304,-49,-38,196,-164
0,205612,384,2750,-564,-1495,-304,-49,-38,196,-164
0,205617,384,2750,-564,-1495,-304,-49,-38,196,-164
0,205622,389,2750,-571,-1491,-306,-49,-38,196,-164
0,205628,389,2750,-571,-1491,-306,-49,-38,196,-164
0,205634,389,2750,-571,-1491,-306,-49,-38,196,-164
0,205639,386,2750,-569,-1495,-310,-52,-43,201,-164
0,205644,386,2750,-569,-1495,-310,-52,-43,201,-157
0,205649,386,2750,-569,-1495,-310,-52,-43,201,-157
0,205656,386,2750,-569,-1495,-310,-52,-43,201,-157
0,205661,388,2749,-571,-1492,-314,-39,-43,201,-157
0,205667,388,2749,-571,-1492,-314,-39,-43,201,-157
0,205672,388,2749,-571,-1492,-314,-39,-43,201,-157
0,205677,388,2749,-571,-1492,-314,-39,-43,201,-157
0,205683,385,2750,-568,-1489,-308,-45,-43,201,-157
0,205688,385,2750,-568,-1489,-308,-45,-43,201,-157
0,205693,385,2750,-568,-1489,-308,-45,-43,201,-157
0,205700,389,2749,-574,-1495,-304,-54,-43,201,-157
0,205705,389,2749,-574,-1495,-304,-54,-43,201,-157
0,205710,389,2749,-574,-1495,-304,-54,-43,201,-157
0,205715,389,2749,-574,-1495,-304,-54,-43,201,-157
0,205721,389,2751,-572,-1484,-308,-54,-43,201,-157
0,205726,389,2751,-572,-1484,-308,-54,-43,201,-157
0,205731,389,2751,-572,-1484,-308,-54,-43,201,-157
0,205736,389,2751,-572,-1484,-308,-54,-43,201,-157
0,205742,388,2751,-569,-1489,-311,-51,-43,201,-157
0,205748,388,2751,-569,-1489,-311,-51,-43,201,-157
0,205753,388,2751,-569,-1489,-311,-51,-43,201,-157
0,205758,388,2751,-569,-1489,-311,-51,-43,201,-157
0,205764,388,2752,-574,-1494,-304,-46,-38,202,-156
0,205770,388,2752,-574,-1494,-304,-46,-38,202,-156
0,205775,388,2752,-574,-1494,-304,-46,-38,202,-156
0,205782,388,2749,-569,-1498,-304,-53,-38,202,-156
0,205787,388,2749,-569,-1498,-304,-53,-38,202,-156
0,205793,388,2749,-569,-1498,-304,-53,-38,202,-156
0,205798,388,2749,-569,-1498,-304,-53,-38,202,-156
0,205803,390,2751,-568,-1494,-305,-51,-38,202,-156
0,205809,390,2751,-568,-1494,-305,-51,-38,202,-156
0,205814,390,2751,-568,-1494,-305,-51,-38,202,-156
0,205819,389,2750,-570,-1487,-310,-46,-38,202,-156
0,205825,389,2750,-570,-1487,-310,-46,-38,202,-156
0,205830,389,2750,-570,-1487,-310,-46,-38,202,-156
0,205835,389,2750,-570,-1487,-310,-46,-38,202,-156
0,205841,389,2748,-572,-1491,-311,-43,-38,202,-156
0,205846,389,2748,-572,-1491,-311,-43,-38,202,-156
0,205852,389,2748,-572,-1491,-311,-43,-38,202,-156
0,205857,389,2748,-572,-1491,-311,-43,-38,202,-156
0,205863,387,2748,-568,-1485,-316,-46,-38,202,-156
0,205869,387,2748,-568,-1485,-316,-46,-38,202,-156
0,205874,387,2748,-568,-1485,-316,-46,-38,202,-156
0,205879,387,2749,-568,-1482,-303,-44,-42,204,-162
0,205885,387,2749,-568,-1482,-303,-44,-42,204,-162
0,205890,387,2749,-568,-1482,-303,-44,-42,204,-162
0,205896,387,2749,-568,-1482,-303,-44,-42,204,-162
0,205901,387,2751,-567,-1490,-301,-47,-42,204,-162
0,205907,387,2751,-567,-1490,-301,-47,-42,204,-162
0,205913,387,2751,-567,-1490,-301,-47,-42,204,-162
0,205918,387,2751,-567,-1490,-301,-47,-42,204,-162
0,205923,387,2747,-569,-1494,-310,-49,-42,204,-162
0,205929,387,2747,-569,-1494,-310,-49,-42,204,-162
0,205934,387,2747,-569,-1494,-310,-49,-42,204,-162
0,205940,390,2749,-566,-1491,-307,-49,-42,204,-162
0,205945,390,2749,-566,-1491,-307,-49,-42,204,-162
0,205952,390,2749,-566,-1491,-307,-49,-42,204,-162
0,205958,390,2749,-566,-1491,-307,-49,-42,204,-162
0,205964,389,2750,-568,-1499,-311,-45,-42,204,-162
0,205968,389,2750,-568,-1499,-311,-45,-42,204,-162
0,205974,389,2750,-568,-1499,-311,-45,-42,204,-162
0,205979,388,2752,-574,-1495,-303,-44,-42,204,-162
0,205985,388,2752,-574,-1495,-303,-44,-42,204,-162
0,205990,388,2752,-574,-1495,-303,-44,-42,204,-162
0,205996,388,2752,-574,-1495,-303,-44,-42,204,-162
0,206001,388,2750,-569,-1489,-307,-44,-42,204,-162
0,206007,388,2750,-569,-1489,-307,-44,-42,204,-162
0,206012,388,2750,-569,-1489,-307,-44,-42,204,-162
0,206018,388,2750,-569,-1489,-307,-44,-42,204,-162
0,206023,389,2750,-568,-1492,-304,-50,-42,208,-168
0,206029,389,2750,-568,-1492,-304,-50,-42,208,-168
0,206034,389,2750,-568,-1492,-304,-50,-42,208,-168
0,206040,390,2751,-570,-1492,-305,-44,-42,208,-168
0,206047,390,2751,-570,-1492,-305,-44,-42,208,-168
0,206052,390,2751,-570,-1492,-305,-44,-42,208,-168
0,206057,390,2751,-570,-1492,-305,-44,-42,208,-168
0,206063,389,2750,-573,-1482,-304,-44,-42,208,-168
0,206069,389,2750,-573,-1482,-304,-44,-42,208,-168
0,206074,389,2750,-573,-1482,-304,-44,-42,208,-168
0,206080,388,2752,-568,-1485,-307,-54,-42,208,-168
0,206085,388,2752,-568,-1485,-307,-54,-42,208,-168
0,206090,388,2752,-568,-1485,-307,-54,-42,208,-168
0,206096,388,2752,-568,-1485,-307,-54,-42,208,-168
0,206101,388,2751,-575,-1485,-311,-48,-42,208,-168
0,206106,388,2751,-575,-1485,-311,-48,-42,208,-168
0,206112,388,2751,-575,-1485,-311,-48,-42,208,-168
0,206117,388,2751,-575,-1485,-311,-48,-42,208,-168
0,206123,388,2751,-574,-1498,-299,-46,-42,208,-168
0,206128,388,2751,-574,-1498,-299,-46,-42,208,-168
0,206133,388,2751,-574,-1498,-299,-46,-42,208,-168
0,206138,388,2751,-574,-1498,-299,-46,-42,208,-168
0,206143,387,2750,-567,-1492,-305,-50,-37,203,-169
0,206148,387,2750,-567,-1492,-305,-50,-37,203,-169
0,206154,387,2750,-567,-1492,-305,-50,-37,203,-169
0,206159,387,2751,-571,-1495,-306,-47,-37,203,-169
0,206164,387,2751,-571,-1495,-306,-47,-37,203,-169
0,206171,387,2751,-571,-1495,-306,-47,-37,203,-169
0,206176,387,2751,-571,-1495,-306,-47,-37,203,-169
0,206182,389,2749,-573,-1487,-303,-43,-37,203,-169
0,206187,389,2749,-573,-1487,-303,-43,-37,203,-169
0,206192,389,2749,-573,-1487,-303,-43,-37,203,-169
0,206198,389,2749,-573,-1487,-303,-43,-37,203,-169
0,206204,389,2748,-570,-1490,-308,-49,-37,203,-169
0,206210,389,2748,-570,-1490,-308,-49,-37,203,-169
0,206216,389,2748,-570,-1490,-308,-49,-37,203,-169
0,206221,386,2752,-567,-1476,-309,-47,-37,203,-169
0,206226,386,2752,-567,-1476,-309,-47,-37,203,-169
0,206232,386,2752,-567,-1476,-309,-47,-37,203,-169
0,206238,386,2752,-567,-1476,-309,-47,-37,203,-169
0,206242,388,2748,-568,-1489,-310,-49,-37,203,-169
0,206248,388,2748,-568,-1489,-310,-49,-37,203,-169
0,206255,388,2748,-568,-1489,-310,-49,-37,203,-169
0,206260,387,2748,-571,-1487,-312,-44,-38,198,-158
0,206265,387,2748,-571,-1487,-312,-44,-38,198,-158
0,206271,387,2748,-571,-1487,-312,-44,-38,198,-158
0,206276,387,2748,-571,-1487,-312,-44,-38,198,-158
0,206282,390,2749,-568,-1491,-304,-55,-38,198,-158
0,206287,390,2749,-568,-1491,-304,-55,-38,198,-158
0,206294,390,2749,-568,-1491,-304,-55,-38,198,-158
0,206299,390,2749,-568,-1491,-304,-55,-38,198,-158
0,206304,389,2749,-567,-1493,-310,-45,-38,198,-158
0,206309,389,2749,-567,-1493,-310,-45,-38,198,-158
0,206315,389,2749,-567,-1493,-310,-45,-38,198,-158
0,206320,387,2747,-570,-1492,-307,-47,-38,198,-158
0,206325,387,2747,-570,-1492,-307,-47,-38,198,-158
0,206330,387,2747,-570,-1492,-307,-47,-38,198,-158
0,206336,387,2747,-570,-1492,-307,-47,-38,198,-158
0,206342,388,2748,-576,-1491,-310,-41,-38,198,-158
0,206348,388,2748,-576,-1491,-310,-41,-38,198,-158
0,206352,388,2748,-576,-1491,-310,-41,-38,198,-158
0,206358,388,2748,-576,-1491,-310,-41,-38,198,-158
0,206363,385,2747,-571,-1492,-307,-44,-38,198,-158
0,206369,385,2747,-571,-1492,-307,-44,-38,198,-158
0,206374,385,2747,-571,-1492,-307,-44,-38,198,-158
0,206380,388,2749,-567,-1487,-306,-49,-34,202,-160
0,206386,388,2749,-567,-1487,-306,-49,-34,202,-160
0,206391,388,2749,-567,-1487,-306,-49,-34,202,-160
0,206397,388,2749,-567,-1487,-306,-49,-34,202,-160
0,206402,386,2751,-570,-1489,-308,-49,-34,202,-160
0,206407,386,2751,-570,-1489,-308,-49,-34,202,-160
0,206413,386,2751,-570,-1489,-308,-49,-34,202,-160
0,206418,386,2751,-570,-1489,-308,-49,-34,202,-160
0,206424,388,2749,-569,-1487,-310,-43,-34,202,-160
0,206429,388,2749,-569,-1487,-310,-43,-34,202,-160
0,206435,388,2749,-569,-1487,-310,-43,-34,202,-160
0,206440,389,2748,-568,-1487,-306,-37,-34,202,-160
0,206446,389,2748,-568,-1487,-306,-37,-34,202,-160
0,206451,389,2748,-568,-1487,-306,-37,-34,202,-160
0,206457,389,2748,-568,-1487,-306,-37,-34,202,-160
0,206462,389,2750,-567,-1494,-303,-47,-34,202,-160
0,206468,389,2750,-567,-1494,-303,-47,-34,202,-160
0,206473,389,2750,-567,-1494,-303,-47,-34,202,-160
0,206479,389,2750,-567,-1494,-303,-47,-34,202,-160
0,206484,388,2747,-571,-1491,-308,-42,-34,202,-160
0,206490,388,2747,-571,-1491,-308,-42,-34,202,-160
0,206495,388,2747,-571,-1491,-308,-42,-34,202,-160
0,206501,387,2749,-572,-1488,-307,-46,-34,200,-158
0,206507,387,2749,-572,-1488,-307,-46,-34,200,-158
0,206512,387,2749,-572,-1488,-307,-46,-34,200,-158
0,206517,387,2749,-572,-1488,-307,-46,-34,200,-158
0,206522,386,2749,-571,-1488,-307,-59,-34,200,-158
0,206528,386,2749,-571,-1488,-307,-59,-34,200,-158
0,206533,386,2749,-571,-1488,-307,-59,-34,200,-158
0,206539,387,2746,-574,-1486,-303,-59,-34,200,-158
0,206545,387,2746,-574,-1486,-303,-59,-34,200,-158
0,206551,387,2746,-574,-1486,-303,-59,-34,200,-158
0,206557,387,2746,-574,-1486,-303,-59,-34,200,-158
0,206562,390,2749,-571,-1486,-306,-43,-34,200,-158
0,206567,390,2749,-571,-1486,-306,-43,-34,200,-158
0,206573,390,2749,-571,-1486,-306,-43,-34,200,-158
0,206578,390,2749,-571,-1486,-306,-43,-34,200,-158
0,206583,389,2750,-569,-1489,-302,-45,-34,200,-158
0,206588,389,2750,-569,-1489,-302,-45,-34,200,-158
0,206594,389,2750,-569,-1489,-302,-45,-34,200,-158
0,206600,386,2748,-570,-1482,-308,-51,-34,200,-158
0,206605,386,2748,-570,-1482,-308,-51,-34,200,-158
0,206611,386,2748,-570,-1482,-308,-51,-34,200,-158
0,206616,386,2748,-570,-1482,-308,-51,-34,200,-158
0,206621,389,2750,-571,-1488,-304,-42,-34,200,-158
0,206627,389,2750,-571,-1488,-304,-42,-34,200,-158
0,206632,389,2750,-571,-1488,-304,-42,-34,200,-158
0,206638,389,2750,-571,-1488,-304,-42,-34,200,-158
0,206644,387,2751,-570,-1488,-305,-47,-37,197,-155
0,206649,387,2751,-570,-1488,-305,-47,-37,197,-155
0,206654,387,2751,-570,-1488,-305,-47,-37,197,-155
0,206659,388,2747,-572,-1484,-311,-50,-37,197,-155
0,206665,388,2747,-572,-1484,-311,-50,-37,197,-155
0,206670,388,2747,-572,-1484,-311,-50,-37,197,-155
0,206675,388,2747,-572,-1484,-311,-50,-37,197,-155
0,206682,390,2749,-572,-1493,-311,-41,-37,197,-155
0,206688,390,2749,-572,-1493,-311,-41,-37,197,-155
0,206693,390,2749,-572,-1493,-311,-41,-37,197,-155
0,206699,390,2749,-572,-1493,-311,-41,-37,197,-155
0,206704,389,2748,-568,-1487,-308,-45,-37,197,-155
0,206710,389,2748,-568,-1487,-308,-45,-37,197,-155
0,206715,389,2748,-568,-1487,-308,-45,-37,197,-155
0,206722,388,2750,-574,-1497,-307,-54,-37,197,-155
0,206728,388,2750,-574,-1497,-307,-54,-37,197,-155
0,206733,388,2750,-574,-1497,-307,-54,-37,197,-155
0,206739,388,2750,-574,-1497,-307,-54,-37,197,-155
0,206744,385,2748,-572,-1501,-303,-49,-37,197,-155
0,206749,385,2748,-572,-1501,-303,-49,-37,197,-155
0,206754,385,2748,-572,-1501,-303,-49,-37,197,-155
0,206760,385,2748,-572,-1501,-303,-49,-37,201,-161
0,206766,385,2748,-572,-1501,-303,-49,-37,201,-161
0,206771,385,2748,-572,-1501,-303,-49,-37,201,-161
0,206777,385,2748,-572,-1501,-303,-49,-37,201,-161
0,206782,388,2747,-568,-1495,-310,-44,-37,201,-161
0,206788,388,2747,-568,-1495,-310,-44,-37,201,-161
0,206793,388,2747,-568,-1495,-310,-44,-37,201,-161
0,206799,388,2748,-575,-1484,-306,-49,-37,201,-161
0,206804,388,2748,-575,-1484,-306,-49,-37,201,-161
0,206810,388,2748,-575,-1484,-306,-49,-37,201,-161
0,206816,388,2748,-575,-1484,-306,-49,-37,201,-161
0,206821,390,2749,-570,-1486,-306,-49,-37,201,-161
0,206826,390,2749,-570,-1486,-306,-49,-37,201,-161
0,206832,390,2749,-570,-1486,-306,-49,-37,201,-161
0,206837,390,2749,-570,-1486,-306,-49,-37,201,-161
0,206842,388,2752,-572,-1490,-310,-44,-37,201,-161
0,206848,388,2752,-572,-1490,-310,-44,-37,201,-161
0,206854,388,2752,-572,-1490,-310,-44,-37,201,-161
0,206859,388,2752,-572,-1490,-310,-44,-37,201,-161
0,206864,390,2749,-567,-1494,-306,-46,-37,201,-161
0,206870,390,2749,-567,-1494,-306,-46,-37,201,-161
0,206875,390,2749,-567,-1494,-306,-46,-37,201,-161
0,206881,389,2750,-570,-1492,-298,-51,-44,202,-164
0,206886,389,2750,-570,-1492,-298,-51,-44,202,-164
0,206892,389,2750,-570,-1492,-298,-51,-44,202,-164
0,206898,389,2750,-570,-1492,-298,-51,-44,202,-164
0,206903,388,2749,-571,-1501,-301,-54,-44,202,-164
0,206908,388,2749,-571,-1501,-301,-54,-44,202,-164
0,206914,388,2749,-571,-1501,-301,-54,-44,202,-164
0,206919,389,2748,-571,-1488,-298,-50,-44,202,-164
0,206925,389,2748,-571,-1488,-298,-50,-44,202,-164
0,206929,389,2748,-571,-1488,-298,-50,-44,202,-164
0,206936,389,2748,-571,-1488,-298,-50,-44,202,-164
0,206941,387,2751,-572,-1489,-300,-48,-44,202,-164
0,206947,387,2751,-572,-1489,-300,-48,-44,202,-164
0,206952,387,2751,-572,-1489,-300,-48,-44,202,-164
0,206957,387,2751,-572,-1489,-300,-48,-44,202,-164
0,206963,388,2748,-571,-1496,-303,-45,-44,202,-164
0,206968,388,2748,-571,-1496,-303,-45,-44,202,-164
0,206973,388,2748,-571,-1496,-303,-45,-44,202,-164
0,206980,390,2750,-574,-1492,-305,-46,-44,202,-164
0,206986,390,2750,-574,-1492,-305,-46,-44,202,-164
0,206991,390,2750,-574,-1492,-305,-46,-44,202,-164
0,206996,390,2750,-574,-1492,-305,-46,-44,202,-164
0,207002,386,2751,-572,-1484,-306,-47,-49,207,-163
0,207007,386,2751,-572,-1484,-306,-47,-49,207,-163
0,207012,386,2751,-572,-1484,-306,-47,-49,207,-163
0,207019,386,2751,-572,-1484,-306,-47,-49,207,-163
0,207024,388,2750,-572,-1495,-310,-54,-49,207,-163
0,207030,388,2750,-572,-1495,-310,-54,-49,207,-163
0,207035,388,2750,-572,-1495,-310,-54,-49,207,-163
0,207041,386,2748,-569,-1495,-309,-50,-49,207,-163
0,207046,386,2748,-569,-1495,-309,-50,-49,207,-163
0,207051,386,2748,-569,-1495,-309,-50,-49,207,-163
0,207056,386,2748,-569,-1495,-309,-50,-49,207,-163
0,207062,385,2751,-572,-1489,-304,-53,-49,207,-163
0,207068,385,2751,-572,-1489,-304,-53,-49,207,-163
0,207073,385,2751,-572,-1489,-304,-53,-49,207,-163
0,207078,385,2751,-572,-1489,-304,-53,-49,207,-163
0,207083,382,2748,-569,-1495,-307,-57,-49,207,-163
0,207089,382,2748,-569,-1495,-307,-57,-49,207,-163
0,207094,382,2748,-569,-1495,-307,-57,-49,207,-163
0,207099,388,2749,-571,-1495,-312,-50,-49,207,-163
0,207106,388,2749,-571,-1495,-312,-50,-49,207,-163
0,207111,388,2749,-571,-1495,-312,-50,-49,207,-163
0,207116,388,2749,-571,-1495,-312,-50,-49,207,-163
0,207122,385,2751,-571,-1495,-305,-46,-46,208,-166
0,207127,385,2751,-571,-1495,-305,-46,-46,208,-166
0,207133,385,2751,-571,-1495,-305,-46,-46,208,-166
0,207138,385,2751,-571,-1495,-305,-46,-46,208,-166
0,207144,386,2747,-568,-1490,-307,-50,-46,208,-166
0,207150,386,2747,-568,-1490,-307,-50,-46,208,-166
0,207155,386,2747,-568,-1490,-307,-50,-46,208,-166
0,207160,387,2749,-570,-1486,-306,-46,-46,208,-166
0,207165,387,2749,-570,-1486,-306,-46,-46,208,-166
0,207171,387,2749,-570,-1486,-306,-46,-46,208,-166
0,207176,387,2749,-570,-1486,-306,-46,-46,208,-166
0,207181,388,2748,-565,-1488,-313,-52,-46,208,-166
0,207187,388,2748,-565,-1488,-313,-52,-46,208,-166
0,207193,388,2748,-565,-1488,-313,-52,-46,208,-166
0,207199,388,2748,-565,-1488,-313,-52,-46,208,-166
0,207204,388,2749,-571,-1490,-305,-45,-46,208,-166
0,207210,388,2749,-571,-1490,-305,-45,-46,208,-166
0,207215,388,2749,-571,-1490,-305,-45,-46,208,-166
0,207221,386,2751,-575,-1487,-308,-41,-46,208,-166
0,207226,386,2751,-575,-1487,-308,-41,-46,208,-166
0,207232,386,2751,-575,-1487,-308,-41,-46,208,-166
0,207237,386,2751,-575,-1487,-308,-41,-46,208,-166
0,207243,386,2751,-575,-1487,-308,-41,-46,208,-166
0,207248,386,2751,-575,-1487,-308,-41,-46,208,-166
0,207254,386,2751,-575,-1487,-308,-41,-46,208,-166
0,207259,386,2751,-575,-1487,-308,-41,-46,208,-166
0,207264,386,2749,-569,-1491,-307,-46,-37,205,-163
0,207270,386,2749,-569,-1491,-307,-46,-37,205,-163
0,207276,386,2749,-569,-1491,-307,-46,-37,205,-163
0,207281,387,2751,-567,-1489,-307,-46,-37,205,-163
0,207286,387,2751,-567,-1489,-307,-46,-37,205,-163
0,207292,387,2751,-567,-1489,-307,-46,-37,205,-163
0,207297,387,2751,-567,-1489,-307,-46,-37,205,-163
0,207302,388,2750,-570,-1494,-302,-43,-37,205,-163
0,207307,388,2750,-570,-1494,-302,-43,-37,205,-163
0,207313,388,2750,-570,-1494,-302,-43,-37,205,-163
0,207319,388,2750,-570,-1494,-302,-43,-37,205,-163
0,207324,386,2748,-571,-1487,-304,-52,-37,205,-163
0,207329,386,2748,-571,-1487,-304,-52,-37,205,-163
0,207335,386,2748,-571,-1487,-304,-52,-37,205,-163
0,207340,386,2751,-569,-1492,-303,-47,-37,205,-163
0,207345,386,2751,-569,-1492,-303,-47,-37,205,-163
0,207350,386,2751,-569,-1492,-303,-47,-37,205,-163
0,207356,386,2751,-569,-1492,-303,-47,-37,205,-163
0,207362,387,2749,-573,-1489,-312,-46,-37,205,-163
0,207367,387,2749,-573,-1489,-312,-46,-37,205,-163
0,207373,387,2749,-573,-1489,-312,-46,-37,205,-163
0,207378,387,2749,-573,-1489,-312,-46,-37,205,-163
0,207383,388,2750,-567,-1487,-307,-44,-44,206,-158
0,207389,388,2750,-567,-1487,-307,-44,-44,206,-158
0,207394,388,2750,-567,-1487,-307,-44,-44,206,-158
0,207399,386,2749,-571,-1492,-312,-38,-44,206,-158
0,207405,386,2749,-571,-1492,-312,-38,-44,206,-158
0,207411,386,2749,-571,-1492,-312,-38,-44,206,-158
0,207416,386,2749,-571,-1492,-312,-38,-44,206,-158
0,207421,387,2749,-573,-1493,-315,-46,-44,206,-158
0,207427,387,2749,-573,-1493,-315,-46,-44,206,-158
0,207432,387,2749,-573,-1493,-315,-46,-44,206,-158
0,207437,387,2749,-573,-1493,-315,-46,-44,206,-158
0,207442,387,2750,-572,-1490,-313,-54,-44,206,-158
0,207448,387,2750,-572,-1490,-313,-54,-44,206,-158
0,207454,387,2750,-572,-1490,-313,-54,-44,206,-158
0,207458,387,2750,-572,-1490,-313,-54,-44,206,-158
0,207464,389,2750,-578,-1493,-314,-47,-44,206,-158
0,207469,389,2750,-578,-1493,-314,-47,-44,206,-158
0,207474,389,2750,-578,-1493,-314,-47,-44,206,-158
0,207480,386,2751,-571,-1490,-316,-47,-44,206,-158
0,207485,386,2751,-571,-1490,-316,-47,-44,206,-158
0,207491,386,2751,-571,-1490,-316,-47,-44,206,-158
0,207496,386,2751,-571,-1490,-316,-47,-44,206,-158
0,207502,387,2749,-566,-1491,-308,-45,-40,198,-160
0,207507,387,2749,-566,-1491,-308,-45,-40,198,-160
0,207513,387,2749,-566,-1491,-308,-45,-40,198,-160
0,207518,387,2749,-566,-1491,-308,-45,-40,198,-160
0,207524,385,2749,-566,-1492,-318,-50,-40,198,-160
0,207528,385,2749,-566,-1492,-318,-50,-40,198,-160
0,207534,385,2749,-566,-1492,-318,-50,-40,198,-160
0,207540,386,2751,-571,-1494,-312,-49,-40,198,-160
0,207545,386,2751,-571,-1494,-312,-49,-40,198,-160
0,207550,386,2751,-571,-1494,-312,-49,-40,198,-160
0,207555,386,2751,-571,-1494,-312,-49,-40,198,-160
0,207561,390,2748,-573,-1494,-307,-49,-40,198,-160
0,207566,390,2748,-573,-1494,-307,-49,-40,198,-160
0,207572,390,2748,-573,-1494,-307,-49,-40,198,-160
0,207578,390,2748,-573,-1494,-307,-49,-40,198,-160
0,207583,389,2748,-575,-1494,-308,-42,-40,198,-160
0,207589,389,2748,-575,-1494,-308,-42,-40,198,-160
0,207594,389,2748,-575,-1494,-308,-42,-40,198,-160
0,207600,389,2749,-573,-1492,-307,-44,-40,198,-160
0,207605,389,2749,-573,-1492,-307,-44,-40,198,-160
0,207610,389,2749,-573,-1492,-307,-44,-40,198,-160
0,207617,389,2749,-573,-1492,-307,-44,-40,198,-160
0,207622,389,2748,-573,-1482,-304,-52,-45,205,-163
0,207627,389,2748,-573,-1482,-304,-52,-45,205,-163
0,207633,389,2748,-573,-1482,-304,-52,-45,205,-163
0,207638,389,2748,-573,-1482,-304,-52,-45,205,-163
0,207644,388,2747,-566,-1493,-310,-49,-45,205,-163
0,207650,388,2747,-566,-1493,-310,-49,-45,205,-163
0,207656,388,2747,-566,-1493,-310,-49,-45,205,-163
0,207663,387,2748,-569,-1491,-312,-44,-45,205,-163
0,207668,387,2748,-569,-1491,-312,-44,-45,205,-163
0,207673,387,2748,-569,-1491,-312,-44,-45,205,-163
0,207679,387,2748,-569,-1491,-312,-44,-45,205,-163
0,207684,387,2750,-566,-1486,-308,-51,-45,205,-163
0,207690,387,2750,-566,-1486,-308,-51,-45,205,-163
0,207695,387,2750,-566,-1486,-308,-51,-45,205,-163
0,207700,385,2751,-571,-1484,-307,-50,-45,205,-163
0,207707,385,2751,-571,-1484,-307,-50,-45,205,-163
0,207712,385,2751,-571,-1484,-307,-50,-45,205,-163
0,207717,385,2751,-571,-1484,-307,-50,-45,205,-163
0,207722,387,2748,-573,-1483,-311,-49,-45,205,-163
0,207728,387,2748,-573,-1483,-311,-49,-45,205,-163
0,207733,387,2748,-573,-1483,-311,-49,-45,205,-163
0,207739,387,2748,-573,-1483,-311,-49,-45,205,-163
0,207745,387,2749,-570,-1488,-306,-48,-45,205,-163
0,207751,387,2749,-570,-1488,-306,-48,-45,205,-163
0,207756,387,2749,-570,-1488,-306,-48,-45,205,-163
0,207761,386,2748,-572,-1493,-304,-41,-41,205,-157
0,207766,386,2748,-572,-1493,-304,-41,-41,205,-157
0,207772,386,2748,-572,-1493,-304,-41,-41,205,-157
0,207777,386,2748,-572,-1493,-304,-41,-41,205,-157
0,207783,386,2748,-572,-1493,-304,-41,-41,205,-157
0,207788,386,2748,-572,-1493,-304,-41,-41,205,-157
0,207794,386,2748,-572,-1493,-304,-41,-41,205,-157
0,207799,386,2748,-572,-1493,-304,-41,-41,205,-157
0,207805,388,2750,-568,-1495,-314,-50,-41,205,-157
0,207810,388,2750,-568,-1495,-314,-50,-41,205,-157
0,207816,388,2750,-568,-1495,-314,-50,-41,205,-157
0,207821,387,2748,-573,-1495,-299,-40,-41,205,-157
0,207827,387,2748,-573,-1495,-299,-40,-41,205,-157
0,207833,387,2748,-573,-1495,-299,-40,-41,205,-157
0,207839,387,2748,-573,-1495,-299,-40,-41,205,-157
0,207845,385,2750,-572,-1483,-311,-47,-41,205,-157
0,207850,385,2750,-572,-1483,-311,-47,-41,205,-157
0,207855,385,2750,-572,-1483,-311,-47,-41,205,-157
0,207860,386,2751,-575,-1489,-305,-43,-41,205,-157
0,207866,386,2751,-575,-1489,-305,-43,-41,205,-157
0,207872,386,2751,-575,-1489,-305,-43,-41,205,-157
0,207877,386,2751,-575,-1489,-305,-43,-41,205,-157
0,207883,386,2749,-571,-1493,-303,-47,-43,213,-163
0,207888,386,2749,-571,-1493,-303,-47,-43,213,-163
0,207893,386,2749,-571,-1493,-303,-47,-43,213,-163
0,207899,386,2749,-571,-1493,-303,-47,-43,213,-163
0,207905,387,2753,-569,-1483,-306,-51,-43,213,-163
0,207910,387,2753,-569,-1483,-306,-51,-43,213,-163
0,207917,387,2753,-569,-1483,-306,-51,-43,213,-163
0,207922,387,2750,-573,-1485,-310,-50,-43,213,-163
0,207928,387,2750,-573,-1485,-310,-50,-43,213,-163
0,207933,387,2750,-573,-1485,-310,-50,-43,213,-163
0,207939,387,2750,-573,-1485,-310,-50,-43,213,-163
0,207944,386,2751,-575,-1486,-310,-48,-43,213,-163
0,207949,386,2751,-575,-1486,-310,-48,-43,213,-163
0,207955,386,2751,-575,-1486,-310,-48,-43,213,-163
0,207961,389,2749,-568,-1484,-306,-42,-43,213,-163
0,207966,389,2749,-568,-1484,-306,-42,-43,213,-163
0,207972,389,2749,-568,-1484,-306,-42,-43,213,-163
0,207976,389,2749,-568,-1484,-306,-42,-43,213,-163
0,207982,388,2753,-570,-1489,-307,-46,-43,213,-163
0,207987,388,2753,-570,-1489,-307,-46,-43,213,-163
0,207993,388,2753,-570,-1489,-307,-46,-43,213,-163
0,207998,388,2753,-570,-1489,-307,-46,-43,213,-163
0,208005,389,2750,-567,-1485,-309,-43,-33,205,-167
0,208011,389,2750,-567,-1485,-309,-43,-33,205,-167
0,208016,389,2750,-567,-1485,-309,-43,-33,205,-167
0,208021,387,2750,-569,-1486,-308,-45,-33,205,-167
0,208026,387,2750,-569,-1486,-308,-45,-33,205,-167
0,208032,387,2750,-569,-1486,-308,-45,-33,205,-167
0,208037,387,2750,-569,-1486,-308,-45,-33,205,-167
0,208043,390,2751,-568,-1490,-308,-51,-33,205,-167
0,208049,390,2751,-568,-1490,-308,-51,-33,205,-167
0,208054,390,2751,-568,-1490,-308,-51,-33,205,-167
0,208059,390,2751,-568,-1490,-308,-51,-33,205,-167
0,208065,387,2749,-572,-1491,-309,-49,-33,205,-167
0,208070,387,2749,-572,-1491,-309,-49,-33,205,-167
0,208075,387,2749,-572,-1491,-309,-49,-33,205,-167
0,208081,389,2748,-572,-1493,-306,-46,-33,205,-167
0,208087,389,2748,-572,-1493,-306,-46,-33,205,-167
0,208092,389,2748,-572,-1493,-306,-46,-33,205,-167
0,208098,389,2748,-572,-1493,-306,-46,-33,205,-167
0,208103,389,2750,-573,-1482,-314,-50,-33,205,-167
0,208109,389,2750,-573,-1482,-314,-50,-33,205,-167
0,208114,389,2750,-573,-1482,-314,-50,-33,205,-167
0,208119,389,2750,-573,-1482,-314,-50,-33,205,-167
0,208125,388,2747,-568,-1483,-306,-48,-44,198,-158
0,208131,388,2747,-568,-1483,-306,-48,-44,198,-158
0,208136,388,2747,-568,-1483,-306,-48,-44,198,-158
0,208141,390,2750,-564,-1487,-300,-48,-44,198,-158
0,208147,390,2750,-564,-1487,-300,-48,-44,198,-158
0,208152,390,2750,-564,-1487,-300,-48,-44,198,-158
0,208158,390,2750,-564,-1487,-300,-48,-44,198,-158
0,208163,387,2752,-573,-1494,-305,-51,-44,198,-158
0,208169,387,2752,-573,-1494,-305,-51,-44,198,-158
0,208175,387,2752,-573,-1494,-305,-51,-44,198,-158
0,208180,389,2752,-573,-1494,-306,-49,-44,198,-158
0,208186,389,2752,-573,-1494,-306,-49,-44,198,-158
0,208191,389,2752,-573,-1494,-306,-49,-44,198,-158
0,208196,389,2752,-573,-1494,-306,-49,-44,198,-158
0,208202,388,2750,-569,-1496,-309,-54,-44,198,-158
0,208207,388,2750,-569,-1496,-309,-54,-44,198,-158
0,208212,388,2750,-569,-1496,-309,-54,-44,198,-158
0,208218,388,2750,-569,-1496,-309,-54,-44,198,-158
0,208224,390,2749,-570,-1495,-307,-49,-44,198,-158
0,208229,390,2749,-570,-1495,-307,-49,-44,198,-158
0,208234,390,2749,-570,-1495,-307,-49,-44,198,-158
0,208240,385,2750,-572,-1493,-307,-48,-43,207,-158
0,208245,385,2750,-572,-1493,-307,-48,-43,207,-169
0,208250,385,2750,-572,-1493,-307,-48,-43,207,-169
0,208257,385,2750,-572,-1493,-307,-48,-43,207,-169
0,208262,388,2750,-573,-1489,-308,-48,-43,207,-169
0,208267,388,2750,-573,-1489,-308,-48,-43,207,-169
0,208273,388,2750,-573,-1489,-308,-48,-43,207,-169
0,208278,388,2750,-573,-1489,-308,-48,-43,207,-169
0,208283,386,2750,-572,-1494,-311,-50,-43,207,-169
0,208289,386,2750,-572,-1494,-311,-50,-43,207,-169
0,208294,386,2750,-572,-1494,-311,-50,-43,207,-169
0,208301,386,2750,-572,-1494,-311,-50,-43,207,-169
0,208306,386,2750,-572,-1494,-311,-50,-43,207,-169
0,208311,386,2750,-572,-1494,-311,-50,-43,207,-169
0,208316,386,2750,-572,-1494,-311,-50,-43,207,-169
0,208322,387,2749,-569,-1489,-304,-52,-43,207,-169
0,208327,387,2749,-569,-1489,-304,-52,-43,207,-169
0,208333,387,2749,-569,-1489,-304,-52,-43,207,-169
0,208338,387,2749,-569,-1489,-304,-52,-43,207,-169
0,208344,388,2751,-570,-1483,-306,-46,-43,207,-169
0,208350,388,2751,-570,-1483,-306,-46,-43,207,-169
0,208355,388,2751,-570,-1483,-306,-46,-43,207,-169
0,208360,387,2748,-569,-1489,-310,-46,-43,207,-169
0,208366,387,2748,-569,-1489,-310,-46,-43,207,-169
0,208372,387,2748,-569,-1489,-310,-46,-43,207,-169
0,208377,387,2748,-569,-1489,-310,-46,-43,207,-169
0,208382,390,2750,-571,-1493,-309,-52,-33,205,-157
0,208389,390,2750,-571,-1493,-309,-52,-33,205,-157
0,208395,390,2750,-571,-1493,-309,-52,-33,205,-157
0,208400,390,2750,-571,-1493,-309,-52,-33,205,-157
0,208405,386,2750,-564,-1491,-300,-46,-33,205,-157
0,208411,386,2750,-564,-1491,-300,-46,-33,205,-157
0,208416,386,2750,-564,-1491,-300,-46,-33,205,-157
0,208422,386,2749,-566,-1488,-304,-40,-33,205,-157
0,208429,386,2749,-566,-1488,-304,-40,-33,205,-157
0,208434,386,2749,-566,-1488,-304,-40,-33,205,-157
0,208440,386,2749,-566,-1488,-304,-40,-33,205,-157
0,208446,387,2749,-573,-1487,-306,-53,-33,205,-157
0,208451,387,2749,-573,-1487,-306,-53,-33,205,-157
0,208456,387,2749,-573,-1487,-306,-53,-33,205,-157
0,208462,385,2750,-575,-1493,-306,-46,-33,205,-157
0,208467,385,2750,-575,-1493,-306,-46,-33,205,-157
0,208473,385,2750,-575,-1493,-306,-46,-33,205,-157
0,208479,385,2750,-575,-1493,-306,-46,-33,205,-157
0,208485,389,2747,-571,-1495,-307,-39,-33,205,-157
0,208490,389,2747,-571,-1495,-307,-39,-33,205,-157
0,208495,389,2747,-571,-1495,-307,-39,-33,205,-157
0,208500,387,2748,-570,-1487,-312,-46,-42,200,-162
0,208505,387,2748,-570,-1487,-312,-46,-42,200,-162
0,208512,387,2748,-570,-1487,-312,-46,-42,200,-162
0,208517,387,2748,-570,-1487,-312,-46,-42,200,-162
0,208522,386,2751,-568,-1487,-310,-48,-42,200,-162
0,208527,386,2751,-568,-1487,-310,-48,-42,200,-162
0,208532,386,2751,-568,-1487,-310,-48,-42,200,-162
0,208537,386,2751,-568,-1487,-310,-48,-42,200,-162
0,208542,389,2751,-572,-1491,-311,-48,-42,200,-162
0,208547,389,2751,-572,-1491,-311,-48,-42,200,-162
0,208553,389,2751,-572,-1491,-311,-48,-42,200,-162
0,208559,389,2751,-572,-1491,-311,-48,-42,200,-162
0,208564,389,2749,-570,-1493,-313,-49,-42,200,-162
0,208570,389,2749,-570,-1493,-313,-49,-42,200,-162
0,208575,389,2749,-570,-1493,-313,-49,-42,200,-162
0,208580,389,2752,-570,-1488,-307,-52,-42,200,-162
0,208586,389,2752,-570,-1488,-307,-52,-42,200,-162
0,208591,389,2752,-570,-1488,-307,-52,-42,200,-162
0,208598,389,2752,-570,-1488,-307,-52,-42,200,-162
0,208602,386,2748,-576,-1488,-307,-53,-42,200,-162
0,208607,386,2748,-576,-1488,-307,-53,-42,200,-162
0,208612,386,2748,-576,-1488,-307,-53,-42,200,-162
0,208616,386,2748,-576,-1488,-307,-53,-42,200,-162
0,208620,383,2749,-566,-1487,-309,-47,-40,200,-162
0,208625,383,2749,-566,-1487,-309,-47,-40,200,-162
0,208630,383,2749,-566,-1487,-309,-47,-40,200,-162
0,208634,383,2749,-566,-1487,-309,-47,-40,200,-162
0,208640,383,2749,-566,-1487,-309,-47,-40,200,-162
0,208646,387,2750,-569,-1486,-307,-46,-40,200,-162
0,208651,387,2750,-569,-1486,-307,-46,-40,200,-162
0,208656,387,2750,-569,-1486,-307,-46,-40,200,-162
0,208661,388,2749,-571,-1489,-312,-45,-40,200,-162
0,208666,388,2749,-571,-1489,-312,-45,-40,200,-162
0,208671,388,2749,-571,-1489,-312,-45,-40,200,-162
0,208676,388,2749,-571,-1489,-312,-45,-40,200,-162
0,208683,389,2751,-566,-1491,-307,-40,-40,200,-162
0,208688,389,2751,-566,-1491,-307,-40,-40,200,-162
0,208694,389,2751,-566,-1491,-307,-40,-40,200,-162
0,208700,389,2751,-566,-1491,-307,-40,-40,200,-162
0,208705,387,2750,-569,-1488,-305,-38,-40,200,-162
0,208710,387,2750,-569,-1488,-305,-38,-40,200,-162
0,208715,387,2750,-569,-1488,-305,-38,-40,200,-162
0,208721,387,2747,-570,-1486,-304,-42,-40,200,-162
0,208727,387,2747,-570,-1486,-304,-42,-40,200,-162
0,208733,387,2747,-570,-1486,-304,-42,-40,200,-162
0,208738,387,2747,-570,-1486,-304,-42,-40,200,-162
0,208743,388,2748,-570,-1487,-306,-43,-45,205,-161
0,208749,388,2748,-570,-1487,-306,-43,-45,205,-161
0,208754,388,2748,-570,-1487,-306,-43,-45,205,-161
0,208759,388,2748,-570,-1487,-306,-43,-45,205,-161
0,208765,390,2752,-571,-1483,-308,-41,-45,205,-161
0,208771,390,2752,-571,-1483,-308,-41,-45,205,-161
0,208777,390,2752,-571,-1483,-308,-41,-45,205,-161
0,208783,384,2749,-570,-1482,-304,-51,-45,205,-161
0,208788,384,2749,-570,-1482,-304,-51,-45,205,-161
0,208794,384,2749,-570,-1482,-304,-51,-45,205,-161
0,208799,384,2749,-570,-1482,-304,-51,-45,205,-161
0,208805,388,2748,-578,-1484,-308,-47,-45,205,-161
0,208811,388,2748,-578,-1484,-308,-47,-45,205,-161
0,208817,388,2748,-578,-1484,-308,-47,-45,205,-161
0,208822,389,2752,-570,-1486,-312,-44,-45,205,-161
0,208828,389,2752,-570,-1486,-312,-44,-45,205,-161
0,208833,389,2752,-570,-1486,-312,-44,-45,205,-161
0,208838,389,2752,-570,-1486,-312,-44,-45,205,-161
0,208843,385,2752,-571,-1487,-311,-46,-45,205,-161
0,208849,385,2752,-571,-1487,-311,-46,-45,205,-161
0,208855,385,2752,-571,-1487,-311,-46,-45,205,-161
0,208861,389,2749,-571,-1485,-307,-43,-45,205,-161
0,208866,389,2749,-571,-1485,-307,-43,-40,198,-160
0,208872,389,2749,-571,-1485,-307,-43,-40,198,-160
0,208877,389,2749,-571,-1485,-307,-43,-40,198,-160
0,208883,385,2748,-563,-1483,-306,-42,-40,198,-160
0,208889,385,2748,-563,-1483,-306,-42,-40,198,-160
0,208894,385,2748,-563,-1483,-306,-42,-40,198,-160
0,208901,386,2751,-569,-1488,-311,-44,-40,198,-160
0,208906,386,2751,-569,-1488,-311,-44,-40,198,-160
0,208911,386,2751,-569,-1488,-311,-44,-40,198,-160
0,208916,386,2751,-569,-1488,-311,-44,-40,198,-160
0,208921,391,2750,-570,-1489,-307,-42,-40,198,-160
0,208927,391,2750,-570,-1489,-307,-42,-40,198,-160
0,208932,391,2750,-570,-1489,-307,-42,-40,198,-160
0,208937,391,2750,-570,-1489,-307,-42,-40,198,-160
0,208944,385,2751,-572,-1486,-303,-43,-40,198,-160
0,208949,385,2751,-572,-1486,-303,-43,-40,198,-160
0,208954,385,2751,-572,-1486,-303,-43,-40,198,-160
0,208960,385,2751,-572,-1486,-303,-43,-40,198,-160
0,208965,389,2751,-574,-1484,-306,-39,-40,198,-160
0,208970,389,2751,-574,-1484,-306,-39,-40,198,-160
0,208976,389,2751,-574,-1484,-306,-39,-40,198,-160
0,208983,386,2750,-569,-1492,-310,-45,-40,198,-160
0,208988,386,2750,-569,-1492,-310,-45,-40,198,-160
0,208994,386,2750,-569,-1492,-310,-45,-40,198,-160
0,208999,386,2750,-569,-1492,-310,-45,-40,198,-160
0,209005,388,2751,-569,-1496,-309,-46,-44,206,-162
0,209010,388,2751,-569,-1496,-309,-46,-44,206,-162
0,209016,388,2751,-569,-1496,-309,-46,-44,206,-162
0,209021,384,2751,-571,-1493,-309,-51,-44,206,-162
0,209028,384,2751,-571,-1493,-309,-51,-44,206,-162
0,209033,384,2751,-571,-1493,-309,-51,-44,206,-162
0,209038,384,2751,-571,-1493,-309,-51,-44,206,-162
0,209043,384,2750,-569,-1482,-306,-53,-44,206,-162
0,209049,384,2750,-569,-1482,-306,-53,-44,206,-162
0,209054,384,2750,-569,-1482,-306,-53,-44,206,-162
0,209060,389,2748,-568,-1487,-306,-46,-44,206,-162
0,209065,389,2748,-568,-1487,-306,-46,-44,206,-162
0,209072,389,2748,-568,-1487,-306,-46,-44,206,-162
0,209077,389,2748,-568,-1487,-306,-46,-44,206,-162
0,209082,386,2747,-571,-1491,-314,-46,-44,206,-162
0,209088,386,2747,-571,-1491,-314,-46,-44,206,-162
0,209093,386,2747,-571,-1491,-314,-46,-44,206,-162
0,209099,386,2747,-571,-1491,-314,-46,-44,206,-162
0,209104,388,2751,-569,-1486,-308,-42,-44,206,-162
0,209110,388,2751,-569,-1486,-308,-42,-44,206,-162
0,209116,388,2751,-569,-1486,-308,-42,-44,206,-162
0,209121,389,2749,-566,-1484,-310,-50,-33,205,-155
0,209126,389,2749,-566,-1484,-310,-50,-33,205,-155
0,209132,389,2749,-566,-1484,-310,-50,-33,205,-155
0,209137,389,2749,-566,-1484,-310,-50,-33,205,-155
0,209143,386,2748,-567,-1484,-313,-46,-33,205,-155
0,209148,386,2748,-567,-1484,-313,-46,-33,205,-155
0,209155,386,2748,-567,-1484,-313,-46,-33,205,-155
0,209160,386,2748,-567,-1484,-313,-46,-33,205,-155
0,209166,388,2750,-572,-1488,-316,-44,-33,205,-155
0,209171,388,2750,-572,-1488,-316,-44,-33,205,-155
0,209177,388,2750,-572,-1488,-316,-44,-33,205,-155
0,209182,388,2752,-567,-1492,-307,-45,-33,205,-155
0,209187,388,2752,-567,-1492,-307,-45,-33,205,-155
0,209192,388,2752,-567,-1492,-307,-45,-33,205,-155
0,209199,388,2752,-567,-1492,-307,-45,-33,205,-155
0,209204,388,2751,-569,-1496,-300,-46,-33,205,-155
0,209209,388,2751,-569,-1496,-300,-46,-33,205,-155
0,209214,388,2751,-569,-1496,-300,-46,-33,205,-155
0,209220,388,2751,-569,-1496,-300,-46,-33,205,-155
0,209225,389,2751,-565,-1488,-305,-47,-33,205,-155
0,209231,389,2751,-565,-1488,-305,-47,-33,205,-155
0,209236,389,2751,-565,-1488,-305,-47,-33,205,-155
0,209243,387,2750,-570,-1490,-299,-46,-46,206,-160
0,209248,387,2750,-570,-1490,-299,-46,-46,206,-160
0,209254,387,2750,-570,-1490,-299,-46,-46,206,-160
0,209258,387,2750,-570,-1490,-299,-46,-46,206,-160
0,209263,388,2749,-568,-1484,-310,-49,-46,206,-160
0,209269,388,2749,-568,-1484,-310,-49,-46,206,-160
0,209274,388,2749,-568,-1484,-310,-49,-46,206,-160
0,209280,388,2749,-568,-1484,-310,-49,-46,206,-160
0,209285,386,2751,-572,-1486,-311,-44,-46,206,-160
0,209291,386,2751,-572,-1486,-311,-44,-46,206,-160
0,209296,386,2751,-572,-1486,-311,-44,-46,206,-160
0,209302,384,2751,-568,-1481,-304,-40,-46,206,-160
0,209307,384,2751,-568,-1481,-304,-40,-46,206,-160
0,209312,384,2751,-568,-1481,-304,-40,-46,206,-160
0,209317,384,2751,-568,-1481,-304,-40,-46,206,-160
0,209323,387,2750,-569,-1491,-306,-51,-46,206,-160
0,209329,387,2750,-569,-1491,-306,-51,-46,206,-160
0,209334,387,2750,-569,-1491,-306,-51,-46,206,-160
0,209340,387,2750,-569,-1491,-306,-51,-46,206,-160
0,209346,388,2749,-566,-1487,-309,-50,-46,206,-160
0,209351,388,2749,-566,-1487,-309,-50,-46,206,-160
0,209358,388,2749,-566,-1487,-309,-50,-46,206,-160
0,209363,391,2750,-572,-1487,-309,-53,-38,194,-162
0,209369,391,2750,-572,-1487,-309,-53,-38,194,-162
0,209375,391,2750,-572,-1487,-309,-53,-38,194,-162
0,209380,391,2750,-572,-1487,-309,-53,-38,194,-162
0,209385,389,2749,-565,-1494,-306,-50,-38,194,-162
0,209390,389,2749,-565,-1494,-306,-50,-38,194,-162
0,209396,389,2749,-565,-1494,-306,-50,-38,194,-162
0,209400,388,2750,-573,-1487,-309,-49,-38,194,-162
0,209405,388,2750,-573,-1487,-309,-49,-38,194,-162
0,209411,388,2750,-573,-1487,-309,-49,-38,194,-162
0,209416,388,2750,-573,-1487,-309,-49,-38,194,-162
0,209422,385,2751,-573,-1495,-305,-48,-38,194,-162
0,209427,385,2751,-573,-1495,-305,-48,-38,194,-162
0,209433,385,2751,-573,-1495,-305,-48,-38,194,-162
0,209438,385,2751,-573,-1495,-305,-48,-38,194,-162
0,209444,387,2749,-576,-1492,-305,-46,-38,194,-162
0,209449,387,2749,-576,-1492,-305,-46,-38,194,-162
0,209456,387,2749,-576,-1492,-305,-46,-38,194,-162
0,209461,389,2749,-573,-1487,-302,-52,-38,194,-162
0,209466,389,2749,-573,-1487,-302,-52,-38,194,-162
0,209471,389,2749,-573,-1487,-302,-52,-38,194,-162
0,209477,389,2749,-573,-1487,-302,-52,-38,194,-162
0,209483,388,2749,-574,-1480,-306,-56,-38,198,-162
0,209488,388,2749,-574,-1480,-306,-56,-38,198,-162
0,209494,388,2749,-574,-1480,-306,-56,-38,198,-162
0,209500,388,2749,-574,-1480,-306,-56,-38,198,-162
0,209505,384,2748,-569,-1487,-306,-46,-38,198,-162
0,209510,384,2748,-569,-1487,-306,-46,-38,198,-162
0,209516,384,2748,-569,-1487,-306,-46,-38,198,-162
0,209521,386,2747,-573,-1490,-304,-49,-38,198,-162
0,209526,386,2747,-573,-1490,-304,-49,-38,198,-162
0,209532,386,2747,-573,-1490,-304,-49,-38,198,-162
0,209539,386,2747,-573,-1490,-304,-49,-38,198,-162
0,209544,389,2748,-575,-1493,-302,-46,-38,198,-162
0,209549,389,2748,-575,-1493,-302,-46,-38,198,-162
0,209554,389,2748,-575,-1493,-302,-46,-38,198,-162
0,209559,389,2748,-575,-1493,-302,-46,-38,198,-162
0,209565,390,2748,-570,-1484,-302,-48,-38,198,-162
0,209570,390,2748,-570,-1484,-302,-48,-38,198,-162
0,209576,390,2748,-570,-1484,-302,-48,-38,198,-162
0,209582,390,2747,-570,-1485,-303,-42,-38,198,-162
0,209588,390,2747,-570,-1485,-303,-42,-38,198,-162
0,209593,390,2747,-570,-1485,-303,-42,-38,198,-162
0,209598,390,2747,-570,-1485,-303,-42,-38,198,-162
0,209603,387,2745,-569,-1494,-304,-43,-38,198,-162
0,209609,387,2745,-569,-1494,-304,-43,-38,198,-162
0,209614,387,2745,-569,-1494,-304,-43,-38,198,-162
0,209620,386,2749,-566,-1496,-305,-46,-38,196,-152
0,209626,386,2749,-566,-1496,-305,-46,-38,196,-152
0,209632,386,2749,-566,-1496,-305,-46,-38,196,-152
0,209637,386,2749,-566,-1496,-305,-46,-38,196,-152
0,209642,387,2748,-566,-1497,-310,-46,-38,196,-152
0,209647,387,2748,-566,-1497,-310,-46,-38,196,-152
0,209652,387,2748,-566,-1497,-310,-46,-38,196,-152
0,209657,387,2748,-566,-1497,-310,-46,-38,196,-152
0,209664,387,2746,-572,-1489,-308,-49,-38,196,-152
0,209669,387,2746,-572,-1489,-308,-49,-38,196,-152
0,209674,387,2746,-572,-1489,-308,-49,-38,196,-152
0,209680,387,2746,-572,-1489,-308,-49,-38,196,-152
0,209685,386,2747,-576,-1490,-304,-48,-38,196,-152
0,209690,386,2747,-576,-1490,-304,-48,-38,196,-152
0,209695,386,2747,-576,-1490,-304,-48,-38,196,-152
0,209700,386,2747,-576,-1490,-304,-48,-38,196,-152
0,209705,387,2749,-573,-1494,-312,-45,-38,196,-152
0,209712,387,2749,-573,-1494,-312,-45,-38,196,-152
0,209717,387,2749,-573,-1494,-312,-45,-38,196,-152
0,209722,388,2750,-573,-1495,-306,-46,-38,196,-152
0,209728,388,2750,-573,-1495,-306,-46,-38,196,-152
0,209733,388,2750,-573,-1495,-306,-46,-38,196,-152
0,209738,388,2750,-573,-1495,-306,-46,-38,196,-152
0,209744,388,2747,-566,-1492,-305,-45,-40,204,-164
0,209750,388,2747,-566,-1492,-305,-45,-40,204,-164
0,209755,388,2747,-566,-1492,-305,-45,-40,204,-164
0,209761,389,2743,-574,-1485,-304,-50,-40,204,-164
0,209767,389,2743,-574,-1485,-304,-50,-40,204,-164
0,209772,389,2743,-574,-1485,-304,-50,-40,204,-164
0,209777,389,2743,-574,-1485,-304,-50,-40,204,-164
0,209782,389,2748,-573,-1491,-300,-48,-40,204,-164
0,209787,389,2748,-573,-1491,-300,-48,-40,204,-164
0,209793,389,2748,-573,-1491,-300,-48,-40,204,-164
0,209798,389,2748,-573,-1491,-300,-48,-40,204,-164
0,209804,388,2748,-573,-1482,-306,-58,-40,204,-164
0,209809,388,2748,-573,-1482,-306,-58,-40,204,-164
0,209815,388,2748,-573,-1482,-306,-58,-40,204,-164
0,209820,388,2750,-564,-1490,-302,-49,-40,204,-164
0,209826,388,2750,-564,-1490,-302,-49,-40,204,-164
0,209831,388,2750,-564,-1490,-302,-49,-40,204,-164
0,209837,388,2750,-564,-1490,-302,-49,-40,204,-164
0,209842,388,2750,-569,-1487,-308,-48,-40,204,-164
0,209848,388,2750,-569,-1487,-308,-48,-40,204,-164
0,209854,388,2750,-569,-1487,-308,-48,-40,204,-164
0,209859,388,2750,-569,-1487,-308,-48,-40,204,-164
0,209865,388,2751,-571,-1484,-306,-46,-42,200,-160
0,209871,388,2751,-571,-1484,-306,-46,-42,200,-160
0,209876,388,2751,-571,-1484,-306,-46,-42,200,-160
0,209882,386,2753,-572,-1488,-308,-43,-42,200,-160
0,209887,386,2753,-572,-1488,-308,-43,-42,200,-160
0,209893,386,2753,-572,-1488,-308,-43,-42,200,-160
0,209898,386,2753,-572,-1488,-308,-43,-42,200,-160
0,209904,385,2750,-572,-1486,-311,-51,-42,200,-160
0,209909,385,2750,-572,-1486,-311,-51,-42,200,-160
0,209914,385,2750,-572,-1486,-311,-51,-42,200,-160
0,209921,385,2750,-572,-1486,-311,-51,-42,200,-160
0,209926,388,2749,-571,-1489,-304,-50,-42,200,-160
0,209931,388,2749,-571,-1489,-304,-50,-42,200,-160
0,209937,388,2749,-571,-1489,-304,-50,-42,200,-160
0,209942,388,2747,-570,-1496,-303,-46,-42,200,-160
0,209949,388,2747,-570,-1496,-303,-46,-42,200,-160
0,209954,388,2747,-570,-1496,-303,-46,-42,200,-160
0,209960,385,2750,-569,-1488,-305,-54,-42,200,-160
0,209967,385,2750,-569,-1488,-305,-54,-42,200,-160
0,209972,385,2750,-569,-1488,-305,-54,-42,200,-160
0,209977,385,2750,-569,-1488,-305,-54,-42,200,-160
0,209982,388,2750,-569,-1487,-306,-50,-34,206,-158
0,209987,388,2750,-569,-1487,-306,-50,-34,206,-158
0,209993,388,2750,-569,-1487,-306,-50,-34,206,-158
0,209998,388,2750,-569,-1487,-306,-50,-34,206,-158
0,210004,389,2745,-572,-1482,-312,-55,-34,206,-158
0,210009,389,2745,-572,-1482,-312,-55,-34,206,-158
0,210015,389,2745,-572,-1482,-312,-55,-34,206,-158
0,210021,390,2751,-569,-1489,-309,-46,-34,206,-158
0,210026,390,2751,-569,-1489,-309,-46,-34,206,-158
0,210031,390,2751,-569,-1489,-309,-46,-34,206,-158
0,210037,390,2751,-569,-1489,-309,-46,-34,206,-158
0,210042,385,2748,-570,-1491,-308,-47,-34,206,-158
0,210049,385,2748,-570,-1491,-308,-47,-34,206,-158
0,210054,385,2748,-570,-1491,-308,-47,-34,206,-158
0,210060,385,2748,-570,-1491,-308,-47,-34,206,-158
0,210065,389,2750,-576,-1487,-307,-49,-34,206,-158
0,210071,389,2750,-576,-1487,-307,-49,-34,206,-158
0,210076,389,2750,-576,-1487,-307,-49,-34,206,-158
0,210082,391,2749,-574,-1483,-306,-47,-34,206,-158
0,210087,391,2749,-574,-1483,-306,-47,-34,206,-158
0,210093,391,2749,-574,-1483,-306,-47,-34,206,-158
0,210099,391,2749,-574,-1483,-306,-47,-34,206,-158
0,210104,389,2747,-571,-1488,-306,-47,-36,196,-166
0,210109,389,2747,-571,-1488,-306,-47,-36,196,-166
0,210114,389,2747,-571,-1488,-306,-47,-36,196,-166
0,210119,389,2747,-571,-1488,-306,-47,-36,196,-166
0,210124,388,2751,-568,-1492,-302,-49,-36,196,-166
0,210129,388,2751,-568,-1492,-302,-49,-36,196,-166
0,210136,388,2751,-568,-1492,-302,-49,-36,196,-166
0,210141,387,2749,-573,-1490,-309,-57,-36,196,-166
0,210147,387,2749,-573,-1490,-309,-57,-36,196,-166
0,210153,387,2749,-573,-1490,-309,-57,-36,196,-166
0,210158,387,2749,-573,-1490,-309,-57,-36,196,-166
0,210164,389,2746,-566,-1494,-312,-49,-36,196,-166
0,210169,389,2746,-566,-1494,-312,-49,-36,196,-166
0,210174,389,2746,-566,-1494,-312,-49,-36,196,-166
0,210180,389,2746,-566,-1494,-312,-49,-36,196,-166
0,210185,389,2749,-569,-1498,-309,-46,-36,196,-166
0,210190,389,2749,-569,-1498,-309,-46,-36,196,-166
0,210195,389,2749,-569,-1498,-309,-46,-36,196,-166
0,210201,387,2748,-570,-1487,-308,-53,-36,196,-166
0,210206,387,2748,-570,-1487,-308,-53,-36,196,-166
0,210212,387,2748,-570,-1487,-308,-53,-36,196,-166
0,210217,387,2748,-570,-1487,-308,-53,-36,196,-166
0,210224,390,2747,-575,-1495,-308,-51,-36,196,-166
0,210229,390,2747,-575,-1495,-308,-51,-36,196,-166
0,210235,390,2747,-575,-1495,-308,-51,-36,196,-166
0,210240,390,2747,-575,-1495,-308,-51,-36,196,-166
0,210246,389,2750,-570,-1494,-312,-49,-37,207,-167
0,210251,389,2750,-570,-1494,-312,-49,-37,207,-167
0,210256,389,2750,-570,-1494,-312,-49,-37,207,-167
0,210263,388,2751,-571,-1490,-315,-52,-37,207,-167
0,210268,388,2751,-571,-1490,-315,-52,-37,207,-167
0,210273,388,2751,-571,-1490,-315,-52,-37,207,-167
0,210279,388,2751,-571,-1490,-315,-52,-37,207,-167
0,210284,387,2751,-574,-1491,-312,-46,-37,207,-167
0,210290,387,2751,-574,-1491,-312,-46,-37,207,-167
0,210295,387,2751,-574,-1491,-312,-46,-37,207,-167
0,210300,387,2752,-570,-1496,-309,-40,-37,207,-167
0,210307,387,2752,-570,-1496,-309,-40,-37,207,-167
0,210312,387,2752,-570,-1496,-309,-40,-37,207,-167
0,210318,387,2752,-570,-1496,-309,-40,-37,207,-167
0,210324,386,2749,-572,-1498,-312,-51,-37,207,-167
0,210329,386,2749,-572,-1498,-312,-51,-37,207,-167
0,210335,386,2749,-572,-1498,-312,-51,-37,207,-167
0,210340,386,2749,-572,-1498,-312,-51,-37,207,-167
0,210347,386,2748,-573,-1488,-313,-53,-37,207,-167
0,210352,386,2748,-573,-1488,-313,-53,-37,207,-167
0,210358,386,2748,-573,-1488,-313,-53,-37,207,-167
0,210363,385,2747,-573,-1490,-307,-55,-39,203,-163
0,210368,385,2747,-573,-1490,-307,-55,-39,203,-163
0,210373,385,2747,-573,-1490,-307,-55,-39,203,-163
0,210379,385,2747,-573,-1490,-307,-55,-39,203,-163
0,210384,385,2748,-569,-1488,-307,-45,-39,203,-163
0,210390,385,2748,-569,-1488,-307,-45,-39,203,-163
0,210395,385,2748,-569,-1488,-307,-45,-39,203,-163
0,210400,385,2748,-569,-1488,-307,-45,-39,203,-163
0,210406,388,2750,-571,-1492,-302,-43,-39,203,-163
0,210411,388,2750,-571,-1492,-302,-43,-39,203,-163
0,210417,388,2750,-571,-1492,-302,-43,-39,203,-163
0,210422,387,2749,-575,-1498,-305,-53,-39,203,-163
0,210428,387,2749,-575,-1498,-305,-53,-39,203,-163
0,210433,387,2749,-575,-1498,-305,-53,-39,203,-163
0,210438,387,2749,-575,-1498,-305,-53,-39,203,-163
0,210444,386,2750,-572,-1494,-302,-46,-39,203,-163
0,210449,386,2750,-572,-1494,-302,-46,-39,203,-163
0,210454,386,2750,-572,-1494,-302,-46,-39,203,-163
0,210459,386,2750,-572,-1494,-302,-46,-39,203,-163
0,210464,389,2749,-569,-1497,-308,-46,-39,203,-163
0,210469,389,2749,-569,-1497,-308,-46,-39,203,-163
0,210475,389,2749,-569,-1497,-308,-46,-39,203,-163
0,210481,389,2749,-569,-1497,-308,-46,-39,203,-163
0,210486,388,2750,-570,-1489,-305,-54,-43,197,-161
0,210491,388,2750,-570,-1489,-305,-54,-43,197,-161
0,210497,388,2750,-570,-1489,-305,-54,-43,197,-161
0,210502,386,2749,-566,-1488,-307,-49,-43,197,-161
0,210507,386,2749,-566,-1488,-307,-49,-43,197,-161
0,210512,386,2749,-566,-1488,-307,-49,-43,197,-161
0,210519,386,2749,-566,-1488,-307,-49,-43,197,-161
0,210524,387,2749,-570,-1491,-309,-50,-43,197,-161
0,210530,387,2749,-570,-1491,-309,-50,-43,197,-161
0,210535,387,2749,-570,-1491,-309,-50,-43,197,-161
0,210540,387,2749,-570,-1491,-309,-50,-43,197,-161
0,210545,385,2749,-567,-1490,-307,-48,-43,197,-161
0,210550,385,2749,-567,-1490,-307,-48,-43,197,-161
0,210555,385,2749,-567,-1490,-307,-48,-43,197,-161
0,210562,387,2747,-571,-1493,-305,-43,-43,197,-161
0,210567,387,2747,-571,-1493,-305,-43,-43,197,-161
0,210573,387,2747,-571,-1493,-305,-43,-43,197,-161
0,210578,387,2747,-571,-1493,-305,-43,-43,197,-161
0,210584,387,2750,-573,-1490,-310,-51,-43,197,-161
0,210588,387,2750,-573,-1490,-310,-51,-43,197,-161
0,210594,387,2750,-573,-1490,-310,-51,-43,197,-161
0,210600,387,2750,-573,-1490,-310,-51,-43,197,-161
0,210606,386,2749,-571,-1491,-311,-48,-43,201,-161
0,210611,386,2749,-571,-1491,-311,-48,-43,201,-161
0,210617,386,2749,-571,-1491,-311,-48,-43,201,-161
0,210622,387,2751,-571,-1489,-306,-48,-43,201,-161
0,210628,387,2751,-571,-1489,-306,-48,-43,201,-161
0,210634,387,2751,-571,-1489,-306,-48,-43,201,-161
0,210639,387,2751,-571,-1489,-306,-48,-43,201,-161
0,210644,390,2750,-567,-1491,-299,-52,-43,201,-161
0,210650,390,2750,-567,-1491,-299,-52,-43,201,-161
0,210656,390,2750,-567,-1491,-299,-52,-43,201,-161
0,210662,387,2745,-575,-1486,-308,-49,-43,201,-161
0,210667,387,2745,-575,-1486,-308,-49,-43,201,-161
0,210672,387,2745,-575,-1486,-308,-49,-43,201,-161
0,210679,387,2745,-575,-1486,-308,-49,-43,201,-161
0,210686,386,2748,-574,-1491,-304,-49,-43,201,-161
0,210692,386,2748,-574,-1491,-304,-49,-43,201,-161
0,210698,386,2748,-574,-1491,-304,-49,-43,201,-161
0,210703,388,2750,-572,-1492,-301,-49,-43,201,-161
0,210709,388,2750,-572,-1492,-301,-49,-43,201,-161
0,210714,388,2750,-572,-1492,-301,-49,-43,201,-161
0,210719,388,2750,-572,-1492,-301,-49,-43,201,-161
0,210725,390,2749,-574,-1492,-303,-44,-43,201,-161
0,210731,390,2749,-574,-1492,-303,-44,-43,201,-161
0,210737,390,2749,-574,-1492,-303,-44,-43,201,-161
0,210742,392,2751,-571,-1487,-305,-46,-44,204,-164
0,210748,392,2751,-571,-1487,-305,-46,-44,204,-164
0,210753,392,2751,-571,-1487,-305,-46,-44,204,-164
0,210759,392,2751,-571,-1487,-305,-46,-44,204,-164
0,210764,391,2749,-566,-1491,-303,-47,-44,204,-164
0,210770,391,2749,-566,-1491,-303,-47,-44,204,-164
0,210776,391,2749,-566,-1491,-303,-47,-44,204,-164
0,210781,391,2749,-566,-1491,-303,-47,-44,204,-164
0,210787,386,2749,-567,-1492,-305,-45,-44,204,-164
0,210792,386,2749,-567,-1492,-305,-45,-44,204,-164
0,210798,386,2749,-567,-1492,-305,-45,-44,204,-164
0,210803,386,2749,-568,-1492,-307,-42,-44,204,-164
0,210809,386,2749,-568,-1492,-307,-42,-44,204,-164
0,210814,386,2749,-568,-1492,-307,-42,-44,204,-164
0,210821,386,2749,-568,-1492,-307,-42,-44,204,-164
0,210826,390,2747,-570,-1491,-308,-46,-44,204,-164
0,210831,390,2747,-570,-1491,-308,-46,-44,204,-164
0,210837,390,2747,-570,-1491,-308,-46,-44,204,-164
0,210842,388,2750,-570,-1486,-311,-47,-44,204,-164
0,210847,388,2750,-570,-1486,-311,-47,-44,204,-164
0,210853,388,2750,-570,-1486,-311,-47,-44,204,-164
0,210859,388,2750,-570,-1486,-311,-47,-44,204,-164
0,210865,385,2751,-570,-1493,-303,-47,-47,205,-161
0,210870,385,2751,-570,-1493,-303,-47,-47,205,-161
0,210876,385,2751,-570,-1493,-303,-47,-47,205,-161
0,210882,387,2750,-565,-1489,-312,-53,-47,205,-161
0,210887,387,2750,-565,-1489,-312,-53,-47,205,-161
0,210892,387,2750,-565,-1489,-312,-53,-47,205,-161
0,210898,387,2750,-565,-1489,-312,-53,-47,205,-161
0,210905,387,2750,-568,-1486,-313,-49,-47,205,-161
0,210909,387,2750,-568,-1486,-313,-49,-47,205,-161
0,210914,387,2750,-568,-1486,-313,-49,-47,205,-161
0,210920,387,2750,-568,-1486,-313,-49,-47,205,-161
0,210926,386,2749,-574,-1486,-308,-43,-47,205,-161
0,210931,386,2749,-574,-1486,-308,-43,-47,205,-161
0,210937,386,2749,-574,-1486,-308,-43,-47,205,-161
0,210942,389,2751,-569,-1493,-311,-41,-47,205,-161
0,210949,389,2751,-569,-1493,-311,-41,-47,205,-161
0,210953,389,2751,-569,-1493,-311,-41,-47,205,-161
0,210959,389,2751,-569,-1493,-311,-41,-47,205,-161
0,210965,389,2749,-573,-1489,-308,-45,-47,205,-161
0,210970,389,2749,-573,-1489,-308,-45,-47,205,-161
0,210975,389,2749,-573,-1489,-308,-45,-47,205,-161
0,210981,386,2748,-569,-1477,-303,-46,-47,205,-161
0,210987,386,2748,-569,-1477,-303,-46,-42,204,-158
0,210992,386,2748,-569,-1477,-303,-46,-42,204,-158
0,210997,386,2748,-569,-1477,-303,-46,-42,204,-158
0,211002,388,2747,-573,-1483,-302,-45,-42,204,-158
0,211007,388,2747,-573,-1483,-302,-45,-42,204,-158
0,211012,388,2747,-573,-1483,-302,-45,-42,204,-158
0,211018,388,2747,-573,-1483,-302,-45,-42,204,-158
0,211023,390,2749,-571,-1489,-305,-40,-42,204,-158
0,211030,390,2749,-571,-1489,-305,-40,-42,204,-158
0,211035,390,2749,-571,-1489,-305,-40,-42,204,-158
0,211041,390,2749,-571,-1489,-305,-40,-42,204,-158
0,211046,388,2749,-572,-1492,-308,-45,-42,204,-158
0,211051,388,2749,-572,-1492,-308,-45,-42,204,-158
0,211056,388,2749,-572,-1492,-308,-45,-42,204,-158
0,211063,386,2749,-570,-1489,-310,-43,-42,204,-158
0,211069,386,2749,-570,-1489,-310,-43,-42,204,-158
0,211075,386,2749,-570,-1489,-310,-43,-42,204,-158
0,211080,386,2749,-570,-1489,-310,-43,-42,204,-158
0,211085,386,2751,-573,-1490,-307,-50,-42,204,-158
0,211090,386,2751,-573,-1490,-307,-50,-42,204,-158
0,211095,386,2751,-573,-1490,-307,-50,-42,204,-158
0,211101,386,2749,-567,-1493,-303,-58,-42,204,-158
0,211106,386,2749,-567,-1493,-303,-58,-35,207,-161
0,211112,386,2749,-567,-1493,-303,-58,-35,207,-161
0,211118,386,2749,-567,-1493,-303,-58,-35,207,-161
0,211124,386,2747,-569,-1493,-313,-45,-35,207,-161
0,211129,386,2747,-569,-1493,-313,-45,-35,207,-161
0,211134,386,2747,-569,-1493,-313,-45,-35,207,-161
0,211139,386,2747,-569,-1493,-313,-45,-35,207,-161
0,211145,391,2751,-570,-1485,-308,-48,-35,207,-161
0,211150,391,2751,-570,-1485,-308,-48,-35,207,-161
0,211156,391,2751,-570,-1485,-308,-48,-35,207,-161
0,211162,388,2748,-572,-1490,-305,-48,-35,207,-161
0,211168,388,2748,-572,-1490,-305,-48,-35,207,-161
0,211173,388,2748,-572,-1490,-305,-48,-35,207,-161
0,211179,388,2748,-572,-1490,-305,-48,-35,207,-161
0,211184,386,2749,-571,-1493,-307,-49,-35,207,-161
0,211189,386,2749,-571,-1493,-307,-49,-35,207,-161
0,211195,386,2749,-571,-1493,-307,-49,-35,207,-161
0,211201,386,2749,-571,-1493,-307,-49,-35,207,-161
0,211206,389,2747,-569,-1491,-310,-44,-35,207,-161
0,211211,389,2747,-569,-1491,-310,-44,-35,207,-161
0,211217,389,2747,-569,-1491,-310,-44,-35,207,-161
0,211222,388,2748,-569,-1490,-308,-45,-34,192,-162
0,211228,388,2748,-569,-1490,-308,-45,-34,192,-162
0,211234,388,2748,-569,-1490,-308,-45,-34,192,-162
0,211239,388,2748,-569,-1490,-308,-45,-34,192,-162
0,211246,387,2749,-568,-1489,-314,-45,-34,192,-162
0,211251,387,2749,-568,-1489,-314,-45,-34,192,-162
0,211257,387,2749,-568,-1489,-314,-45,-34,192,-162
0,211262,388,2752,-570,-1485,-309,-48,-34,192,-162
0,211267,388,2752,-570,-1485,-309,-48,-34,192,-162
0,211273,388,2752,-570,-1485,-309,-48,-34,192,-162
0,211278,388,2752,-570,-1485,-309,-48,-34,192,-162
0,211284,388,2749,-567,-1489,-308,-48,-34,192,-162
0,211290,388,2749,-567,-1489,-308,-48,-34,192,-162
0,211295,388,2749,-567,-1489,-308,-48,-34,192,-162
0,211300,388,2749,-567,-1489,-308,-48,-34,192,-162
0,211306,388,2748,-568,-1493,-304,-50,-34,192,-162
0,211312,388,2748,-568,-1493,-304,-50,-34,192,-162
0,211317,388,2748,-568,-1493,-304,-50,-34,192,-162
0,211323,389,2750,-575,-1486,-311,-44,-34,192,-162
0,211329,389,2750,-575,-1486,-311,-44,-34,192,-162
0,211334,389,2750,-575,-1486,-311,-44,-34,192,-162
0,211339,389,2750,-575,-1486,-311,-44,-34,192,-162
0,211345,391,2744,-572,-1492,-306,-44,-34,192,-162
0,211350,391,2744,-572,-1492,-306,-44,-34,192,-162
0,211355,391,2744,-572,-1492,-306,-44,-34,192,-162
0,211360,391,2744,-572,-1492,-306,-44,-34,192,-162
0,211365,387,2748,-569,-1488,-309,-45,-45,203,-163
0,211371,387,2748,-569,-1488,-309,-45,-45,203,-163
0,211377,387,2748,-569,-1488,-309,-45,-45,203,-163
0,211381,387,2750,-571,-1493,-307,-49,-45,203,-163
0,211387,387,2750,-571,-1493,-307,-49,-45,203,-163
0,211392,387,2750,-571,-1493,-307,-49,-45,203,-163
0,211398,387,2750,-571,-1493,-307,-49,-45,203,-163
0,211403,387,2750,-571,-1493,-307,-49,-45,203,-163
0,211408,387,2750,-571,-1493,-307,-49,-45,203,-163
0,211414,387,2750,-571,-1493,-307,-49,-45,203,-163
0,211419,387,2750,-571,-1493,-307,-49,-45,203,-163
0,211425,387,2752,-572,-1483,-305,-41,-45,203,-163
0,211430,387,2752,-572,-1483,-305,-41,-45,203,-163
0,211435,387,2752,-572,-1483,-305,-41,-45,203,-163
0,211441,387,2749,-569,-1480,-309,-52,-45,203,-163
0,211446,387,2749,-569,-1480,-309,-52,-45,203,-163
0,211451,387,2749,-569,-1480,-309,-52,-45,203,-163
0,211457,387,2749,-569,-1480,-309,-52,-45,203,-163
0,211463,386,2750,-565,-1489,-311,-44,-45,203,-163
0,211468,386,2750,-565,-1489,-311,-44,-45,203,-163
0,211474,386,2750,-565,-1489,-311,-44,-45,203,-163
0,211479,386,2750,-565,-1489,-311,-44,-45,203,-163
0,211484,388,2752,-567,-1494,-306,-47,-45,201,-157
0,211490,388,2752,-567,-1494,-306,-47,-45,201,-157
0,211495,388,2752,-567,-1494,-306,-47,-45,201,-157
0,211501,388,2752,-567,-1494,-306,-47,-45,201,-157
0,211507,389,2749,-568,-1491,-308,-47,-45,201,-157
0,211512,389,2749,-568,-1491,-308,-47,-45,201,-157
0,211517,389,2749,-568,-1491,-308,-47,-45,201,-157
0,211523,387,2749,-567,-1485,-306,-44,-45,201,-157
0,211528,387,2749,-567,-1485,-306,-44,-45,201,-157
0,211534,387,2749,-567,-1485,-306,-44,-45,201,-157
0,211539,387,2749,-567,-1485,-306,-44,-45,201,-157
0,211546,390,2749,-567,-1488,-303,-46,-45,201,-157
0,211550,390,2749,-567,-1488,-303,-46,-45,201,-157
0,211556,390,2749,-567,-1488,-303,-46,-45,201,-157
0,211562,387,2748,-576,-1487,-310,-45,-45,201,-157
0,211567,387,2748,-576,-1487,-310,-45,-45,201,-157
0,211572,387,2748,-576,-1487,-310,-45,-45,201,-157
0,211578,387,2748,-576,-1487,-310,-45,-45,201,-157
0,211584,387,2751,-574,-1495,-312,-43,-45,201,-157
0,211590,387,2751,-574,-1495,-312,-43,-45,201,-157
0,211594,387,2751,-574,-1495,-312,-43,-45,201,-157
0,211600,387,2751,-574,-1495,-312,-43,-45,201,-157
0,211605,388,2751,-576,-1497,-309,-44,-39,199,-159
0,211611,388,2751,-576,-1497,-309,-44,-39,199,-159
0,211616,388,2751,-576,-1497,-309,-44,-39,199,-159
0,211621,387,2751,-567,-1498,-306,-45,-39,199,-159
0,211627,387,2751,-567,-1498,-306,-45,-39,199,-159
0,211633,387,2751,-567,-1498,-306,-45,-39,199,-159
0,211638,387,2751,-567,-1498,-306,-45,-39,199,-159
0,211643,389,2750,-568,-1493,-305,-48,-39,199,-159
0,211649,389,2750,-568,-1493,-305,-48,-39,199,-159
0,211654,389,2750,-568,-1493,-305,-48,-39,199,-159
0,211660,389,2750,-568,-1493,-305,-48,-39,199,-159
0,211665,386,2746,-572,-1485,-306,-48,-39,199,-159
0,211671,386,2746,-572,-1485,-306,-48,-39,199,-159
0,211676,386,2746,-572,-1485,-306,-48,-39,199,-159
0,211682,389,2747,-568,-1486,-304,-50,-39,199,-159
0,211688,389,2747,-568,-1486,-304,-50,-39,199,-159
0,211694,389,2747,-568,-1486,-304,-50,-39,199,-159
0,211699,389,2747,-568,-1486,-304,-50,-39,199,-159
0,211704,385,2748,-564,-1490,-310,-48,-39,199,-159
0,211710,385,2748,-564,-1490,-310,-48,-39,199,-159
0,211716,385,2748,-564,-1490,-310,-48,-39,199,-159
0,211721,385,2748,-564,-1490,-310,-48,-39,199,-159
0,211727,386,2753,-570,-1484,-312,-39,-42,202,-156
0,211732,386,2753,-570,-1484,-312,-39,-42,202,-156
0,211738,386,2753,-570,-1484,-312,-39,-42,202,-156
0,211743,390,2752,-570,-1492,-311,-47,-42,202,-156
0,211749,390,2752,-570,-1492,-311,-47,-42,202,-156
0,211755,390,2752,-570,-1492,-311,-47,-42,202,-156
0,211761,390,2752,-570,-1492,-311,-47,-42,202,-156
0,211766,387,2744,-571,-1482,-308,-39,-42,202,-156
0,211771,387,2744,-571,-1482,-308,-39,-42,202,-156
0,211777,387,2744,-571,-1482,-308,-39,-42,202,-156
0,211782,389,2748,-570,-1488,-306,-43,-42,202,-156
0,211787,389,2748,-570,-1488,-306,-43,-42,202,-156
0,211793,389,2748,-570,-1488,-306,-43,-42,202,-156
0,211799,389,2748,-570,-1488,-306,-43,-42,202,-156
0,211804,384,2749,-573,-1491,-303,-47,-42,202,-156
0,211809,384,2749,-573,-1491,-303,-47,-42,202,-156
0,211815,384,2749,-573,-1491,-303,-47,-42,202,-156
0,211821,384,2749,-573,-1491,-303,-47,-42,202,-156
0,211826,387,2748,-573,-1487,-305,-48,-42,202,-156
0,211832,387,2748,-573,-1487,-305,-48,-42,202,-156
0,211837,387,2748,-573,-1487,-305,-48,-42,202,-156
0,211844,388,2750,-573,-1481,-301,-40,-42,200,-160
0,211849,388,2750,-573,-1481,-301,-40,-42,200,-160
0,211855,388,2750,-573,-1481,-301,-40,-42,200,-160
0,211860,388,2750,-573,-1481,-301,-40,-42,200,-160
0,211865,389,2747,-570,-1493,-305,-47,-42,200,-160
0,211871,389,2747,-570,-1493,-305,-47,-42,200,-160
0,211876,389,2747,-570,-1493,-305,-47,-42,200,-160
0,211883,387,2747,-573,-1492,-312,-48,-42,200,-160
0,211889,387,2747,-573,-1492,-312,-48,-42,200,-160
0,211894,387,2747,-573,-1492,-312,-48,-42,200,-160
0,211899,387,2747,-573,-1492,-312,-48,-42,200,-160
0,211905,388,2748,-570,-1490,-307,-42,-42,200,-160
0,211911,388,2748,-570,-1490,-307,-42,-42,200,-160
0,211916,388,2748,-570,-1490,-307,-42,-42,200,-160
0,211922,388,2749,-572,-1490,-307,-44,-42,200,-160
0,211929,388,2749,-572,-1490,-307,-44,-42,200,-160
0,211934,388,2749,-572,-1490,-307,-44,-42,200,-160
0,211939,388,2749,-572,-1490,-307,-44,-42,200,-160
0,211945,387,2751,-572,-1490,-309,-45,-42,200,-160
0,211950,387,2751,-572,-1490,-309,-45,-42,200,-160
0,211955,387,2751,-572,-1490,-309,-45,-42,200,-160
0,211960,387,2751,-572,-1490,-309,-45,-42,200,-160
0,211966,387,2747,-570,-1489,-308,-45,-42,200,-160
0,211972,387,2747,-570,-1489,-308,-45,-42,200,-160
0,211978,387,2747,-570,-1489,-308,-45,-42,200,-160
0,211983,389,2747,-567,-1491,-306,-41,-38,204,-164
0,211988,389,2747,-567,-1491,-306,-41,-38,204,-164
0,211994,389,2747,-567,-1491,-306,-41,-38,204,-164
0,211999,389,2747,-567,-1491,-306,-41,-38,204,-164
0,212005,387,2751,-570,-1489,-304,-46,-38,204,-164
0,212011,387,2751,-570,-1489,-304,-46,-38,204,-164
0,212016,387,2751,-570,-1489,-304,-46,-38,204,-164
0,212022,390,2751,-571,-1486,-304,-47,-38,204,-164
0,212028,390,2751,-571,-1486,-304,-47,-38,204,-164
0,212034,390,2751,-571,-1486,-304,-47,-38,204,-164
0,212039,390,2751,-571,-1486,-304,-47,-38,204,-164
0,212044,390,2751,-571,-1486,-304,-47,-38,204,-164
0,212050,390,2751,-571,-1486,-304,-47,-38,204,-164
0,212057,390,2751,-571,-1486,-304,-47,-38,204,-164
0,212062,386,2746,-571,-1487,-305,-51,-38,204,-164
0,212068,386,2746,-571,-1487,-305,-51,-38,204,-164
0,212074,386,2746,-571,-1487,-305,-51,-38,204,-164
0,212079,386,2746,-571,-1487,-305,-51,-38,204,-164
0,212085,386,2751,-566,-1491,-302,-49,-38,204,-164
0,212090,386,2751,-566,-1491,-302,-49,-38,204,-164
0,212097,386,2751,-566,-1491,-302,-49,-38,204,-164
0,212103,386,2750,-568,-1496,-303,-44,-34,200,-162
0,212108,386,2750,-568,-1496,-303,-44,-34,200,-162
0,212114,386,2750,-568,-1496,-303,-44,-34,200,-162
0,212119,386,2750,-568,-1496,-303,-44,-34,200,-162
0,212124,385,2751,-567,-1491,-302,-52,-34,200,-162
0,212129,385,2751,-567,-1491,-302,-52,-34,200,-162
0,212134,385,2751,-567,-1491,-302,-52,-34,200,-162
0,212140,385,2751,-567,-1491,-302,-52,-34,200,-162
0,212145,386,2749,-568,-1491,-306,-41,-34,200,-162
0,212150,386,2749,-568,-1491,-306,-41,-34,200,-162
0,212157,386,2749,-568,-1491,-306,-41,-34,200,-162
0,212162,384,2750,-570,-1490,-314,-47,-34,200,-162
0,212168,384,2750,-570,-1490,-314,-47,-34,200,-162
0,212173,384,2750,-570,-1490,-314,-47,-34,200,-162
0,212179,384,2750,-570,-1490,-314,-47,-34,200,-162
0,212186,388,2746,-573,-1490,-309,-47,-34,200,-162
0,212191,388,2746,-573,-1490,-309,-47,-34,200,-162
0,212197,388,2746,-573,-1490,-309,-47,-34,200,-162
0,212202,388,2752,-575,-1491,-306,-47,-34,200,-162
0,212208,388,2752,-575,-1491,-306,-47,-34,200,-162
0,212213,388,2752,-575,-1491,-306,-47,-34,200,-162
0,212219,388,2752,-575,-1491,-306,-47,-34,200,-162
0,212225,389,2751,-572,-1486,-304,-42,-42,208,-166
0,212231,389,2751,-572,-1486,-304,-42,-42,208,-166
0,212236,389,2751,-572,-1486,-304,-42,-42,208,-166
0,212241,389,2751,-572,-1486,-304,-42,-42,208,-166
0,212246,387,2750,-567,-1489,-313,-47,-42,208,-166
0,212252,387,2750,-567,-1489,-313,-47,-42,208,-166
0,212257,387,2750,-567,-1489,-313,-47,-42,208,-166
0,212262,389,2751,-571,-1491,-305,-48,-42,208,-166
0,212268,389,2751,-571,-1491,-305,-48,-42,208,-166
0,212273,389,2751,-571,-1491,-305,-48,-42,208,-166
0,212279,389,2751,-571,-1491,-305,-48,-42,208,-166
0,212284,391,2752,-570,-1489,-302,-51,-42,208,-166
0,212289,391,2752,-570,-1489,-302,-51,-42,208,-166
0,212295,391,2752,-570,-1489,-302,-51,-42,208,-166
0,212300,391,2752,-570,-1489,-302,-51,-42,208,-166
0,212305,388,2745,-569,-1494,-304,-49,-42,208,-166
0,212312,388,2745,-569,-1494,-304,-49,-42,208,-166
0,212317,388,2745,-569,-1494,-304,-49,-42,208,-166
0,212323,387,2748,-568,-1489,-305,-51,-42,208,-166
0,212328,387,2748,-568,-1489,-305,-51,-42,208,-166
0,212334,387,2748,-568,-1489,-305,-51,-42,208,-166
0,212340,387,2748,-568,-1489,-305,-51,-42,208,-166
0,212345,385,2749,-565,-1486,-312,-44,-45,205,-163
0,212350,385,2749,-565,-1486,-312,-44,-45,205,-163
0,212356,385,2749,-565,-1486,-312,-44,-45,205,-163
0,212361,385,2749,-565,-1486,-312,-44,-45,205,-163
0,212366,388,2748,-572,-1480,-309,-48,-45,205,-163
0,212371,388,2748,-572,-1480,-309,-48,-45,205,-163
0,212377,388,2748,-572,-1480,-309,-48,-45,205,-163
0,212382,386,2748,-571,-1488,-306,-52,-45,205,-163
0,212388,386,2748,-571,-1488,-306,-52,-45,205,-163
0,212393,386,2748,-571,-1488,-306,-52,-45,205,-163
0,212400,386,2748,-571,-1488,-306,-52,-45,205,-163
0,212405,387,2750,-566,-1488,-310,-47,-45,205,-163
0,212410,387,2750,-566,-1488,-310,-47,-45,205,-163
0,212416,387,2750,-566,-1488,-310,-47,-45,205,-163
0,212421,387,2750,-566,-1488,-310,-47,-45,205,-163
0,212427,390,2748,-573,-1490,-308,-42,-45,205,-163
0,212432,390,2748,-573,-1490,-308,-42,-45,205,-163
0,212439,390,2748,-573,-1490,-308,-42,-45,205,-163
0,212444,389,2751,-571,-1492,-305,-44,-45,205,-163
0,212450,389,2751,-571,-1492,-305,-44,-45,205,-163
0,212455,389,2751,-571,-1492,-305,-44,-45,205,-163
0,212460,389,2751,-571,-1492,-305,-44,-45,205,-163
0,212466,386,2749,-569,-1487,-308,-48,-40,204,-162
0,212471,386,2749,-569,-1487,-308,-48,-40,204,-162
0,212477,386,2749,-569,-1487,-308,-48,-40,204,-162
0,212483,389,2749,-567,-1487,-309,-42,-40,204,-162
0,212488,389,2749,-567,-1487,-309,-42,-40,204,-162
0,212494,389,2749,-567,-1487,-309,-42,-40,204,-162
0,212499,389,2749,-567,-1487,-309,-42,-40,204,-162
0,212504,389,2748,-573,-1494,-312,-47,-40,204,-162
0,212509,389,2748,-573,-1494,-312,-47,-40,204,-162
0,212514,389,2748,-573,-1494,-312,-47,-40,204,-162
0,212519,389,2748,-573,-1494,-312,-47,-40,204,-162
0,212526,388,2748,-574,-1499,-308,-42,-40,204,-162
0,212531,388,2748,-574,-1499,-308,-42,-40,204,-162
0,212536,388,2748,-574,-1499,-308,-42,-40,204,-162
0,212542,387,2748,-571,-1484,-309,-47,-40,204,-162
0,212547,387,2748,-571,-1484,-309,-47,-40,204,-162
0,212553,387,2748,-571,-1484,-309,-47,-40,204,-162
0,212558,387,2748,-571,-1484,-309,-47,-40,204,-162
0,212563,388,2751,-570,-1481,-306,-48,-40,204,-162
0,212570,388,2751,-570,-1481,-306,-48,-40,204,-162
0,212575,388,2751,-570,-1481,-306,-48,-40,204,-162
0,212581,388,2751,-570,-1481,-306,-48,-40,204,-162
0,212586,389,2749,-570,-1481,-310,-47,-40,204,-162
0,212591,389,2749,-570,-1481,-310,-47,-40,204,-162
0,212597,389,2749,-570,-1481,-310,-47,-40,204,-162
