imu,time,ax,ay,az,gx,gy,gz,mx,my,mz
2,151618,109,186,-2459,-1024,-576,-328,199,185,-529
2,151626,107,185,-2464,-1025,-568,-327,199,185,-529
2,151634,107,185,-2464,-1025,-568,-327,199,185,-529
2,151643,108,186,-2468,-1023,-576,-330,199,185,-529
2,151651,108,186,-2468,-1023,-576,-330,199,185,-529
2,151658,108,186,-2468,-1023,-576,-330,199,185,-529
2,151664,109,181,-2465,-1026,-575,-323,199,185,-529
2,151671,109,181,-2465,-1026,-575,-323,199,185,-529
2,151678,109,181,-2465,-1026,-575,-323,199,185,-529
2,151686,109,184,-2466,-1018,-574,-325,199,185,-529
2,151691,109,184,-2466,-1018,-574,-325,199,185,-529
2,151698,109,184,-2466,-1018,-574,-325,199,185,-529
2,151703,105,186,-2467,-1019,-578,-326,194,188,-522
2,151710,105,186,-2467,-1019,-578,-326,194,188,-522
2,151716,105,186,-2467,-1019,-578,-326,194,188,-522
2,151723,105,182,-2466,-1025,-577,-325,194,188,-522
2,151729,105,182,-2466,-1025,-577,-325,194,188,-522
2,151735,105,182,-2466,-1025,-577,-325,194,188,-522
2,151741,106,186,-2464,-1021,-576,-322,194,188,-522
2,151746,106,186,-2464,-1021,-576,-322,194,188,-522
2,151752,106,186,-2464,-1021,-576,-322,194,188,-522
2,151757,106,186,-2464,-1021,-576,-322,194,188,-522
2,151763,110,184,-2461,-1025,-574,-329,194,188,-522
2,151769,110,184,-2461,-1025,-574,-329,194,188,-522
2,151774,110,184,-2461,-1025,-574,-329,194,188,-522
2,151780,110,182,-2464,-1028,-570,-319,194,188,-522
2,151785,110,182,-2464,-1028,-570,-319,194,188,-522
2,151791,110,182,-2464,-1028,-570,-319,194,188,-522
2,151797,110,182,-2464,-1028,-570,-319,194,188,-522
2,151802,106,185,-2468,-1023,-577,-322,194,188,-522
2,151809,106,185,-2468,-1023,-577,-322,194,188,-522
2,151814,106,185,-2468,-1023,-577,-322,194,188,-522
2,151819,106,185,-2468,-1023,-577,-322,194,188,-522
2,151825,108,181,-2465,-1021,-573,-324,194,188,-522
2,151830,108,181,-2465,-1021,-573,-324,194,188,-522
2,151835,108,181,-2465,-1021,-573,-324,194,188,-522
2,151841,106,185,-2460,-1026,-580,-334,193,183,-529
2,151846,106,185,-2460,-1026,-580,-334,193,183,-529
2,151852,106,185,-2460,-1026,-580,-334,193,183,-529
2,151857,106,185,-2460,-1026,-580,-334,193,183,-529
2,151862,109,184,-2459,-1024,-574,-328,193,183,-529
2,151868,109,184,-2459,-1024,-574,-328,193,183,-529
2,151873,109,184,-2459,-1024,-574,-328,193,183,-529
2,151879,109,184,-2459,-1024,-574,-328,193,183,-529
2,151884,110,182,-2463,-1025,-581,-328,193,183,-529
2,151888,110,182,-2463,-1025,-581,-328,193,183,-529
2,151895,110,182,-2463,-1025,-581,-328,193,183,-529
2,151900,109,183,-2460,-1028,-580,-330,193,183,-529
2,151906,109,183,-2460,-1028,-580,-330,193,183,-529
2,151911,109,183,-2460,-1028,-580,-330,193,183,-529
2,151917,109,183,-2460,-1028,-580,-330,193,183,-529
2,151922,108,187,-2466,-1034,-575,-325,193,183,-529
2,151928,108,187,-2466,-1034,-575,-325,193,183,-529
2,151934,108,187,-2466,-1034,-575,-325,193,183,-529
2,151940,107,184,-2463,-1025,-571,-321,193,183,-529
2,151945,107,184,-2463,-1025,-571,-321,193,183,-529
2,151950,107,184,-2463,-1025,-571,-321,193,183,-529
2,151956,107,184,-2463,-1025,-571,-321,193,183,-529
2,151961,107,184,-2468,-1031,-577,-324,191,181,-521
2,151967,107,184,-2468,-1031,-577,-324,191,181,-521
2,151972,107,184,-2468,-1031,-577,-324,191,181,-521
2,151979,107,184,-2468,-1031,-577,-324,191,181,-521
2,151984,105,185,-2461,-1026,-580,-322,191,181,-521
2,151989,105,185,-2461,-1026,-580,-322,191,181,-521
2,151994,105,185,-2461,-1026,-580,-322,191,181,-521
2,151999,105,185,-2461,-1026,-580,-322,191,181,-521
2,152005,109,184,-2465,-1026,-575,-322,191,181,-521
2,152010,109,184,-2465,-1026,-575,-322,191,181,-521
2,152016,109,184,-2465,-1026,-575,-322,191,181,-521
2,152023,110,184,-2463,-1025,-579,-325,191,181,-521
2,152028,110,184,-2463,-1025,-579,-325,191,181,-521
2,152033,110,184,-2463,-1025,-579,-325,191,181,-521
2,152038,110,184,-2463,-1025,-579,-325,191,181,-521
2,152044,107,186,-2461,-1028,-576,-321,191,181,-521
2,152050,107,186,-2461,-1028,-576,-321,191,181,-521
2,152056,107,186,-2461,-1028,-576,-321,191,181,-521
2,152061,104,184,-2462,-1023,-573,-325,191,181,-521
2,152067,104,184,-2462,-1023,-573,-325,191,181,-521
2,152072,104,184,-2462,-1023,-573,-325,191,181,-521
2,152077,104,184,-2462,-1023,-573,-325,191,181,-521
2,152083,106,181,-2462,-1019,-580,-323,191,181,-521
2,152088,106,181,-2462,-1019,-580,-323,191,181,-521
2,152096,106,181,-2462,-1019,-580,-323,191,181,-521
2,152102,104,184,-2457,-1026,-578,-325,202,188,-528
2,152109,104,184,-2457,-1026,-578,-325,202,188,-528
2,152114,104,184,-2457,-1026,-578,-325,202,188,-528
2,152119,104,184,-2457,-1026,-578,-325,202,188,-528
2,152124,107,186,-2465,-1028,-570,-324,202,188,-528
2,152130,107,186,-2465,-1028,-570,-324,202,188,-528
2,152135,107,186,-2465,-1028,-570,-324,202,188,-528
2,152140,108,185,-2471,-1027,-570,-329,202,188,-528
2,152145,108,185,-2471,-1027,-570,-329,202,188,-528
2,152151,108,185,-2471,-1027,-570,-329,202,188,-528
2,152157,108,185,-2471,-1027,-570,-329,202,188,-528
2,152163,108,185,-2471,-1027,-570,-329,202,188,-528
2,152168,108,185,-2471,-1027,-570,-329,202,188,-528
2,152174,108,185,-2471,-1027,-570,-329,202,188,-528
2,152179,108,185,-2471,-1027,-570,-329,202,188,-528
2,152184,109,186,-2466,-1026,-565,-331,202,188,-528
2,152190,109,186,-2466,-1026,-565,-331,202,188,-528
2,152196,109,186,-2466,-1026,-565,-331,202,188,-528
2,152201,108,184,-2463,-1022,-571,-330,202,188,-528
2,152207,108,184,-2463,-1022,-571,-330,202,188,-528
2,152212,108,184,-2463,-1022,-571,-330,202,188,-528
2,152218,108,184,-2463,-1022,-571,-330,202,188,-528
2,152223,108,186,-2463,-1023,-571,-320,199,183,-515
2,152228,108,186,-2463,-1023,-571,-320,199,183,-515
2,152233,108,186,-2463,-1023,-571,-320,199,183,-515
2,152240,108,186,-2463,-1023,-571,-320,199,183,-515
2,152245,105,183,-2466,-1028,-572,-325,199,183,-515
2,152250,105,183,-2466,-1028,-572,-325,199,183,-515
2,152256,105,183,-2466,-1028,-572,-325,199,183,-515
2,152261,107,184,-2465,-1029,-574,-328,199,183,-515
2,152266,107,184,-2465,-1029,-574,-328,199,183,-515
2,152272,107,184,-2465,-1029,-574,-328,199,183,-515
2,152278,107,184,-2465,-1029,-574,-328,199,183,-515
2,152283,105,188,-2467,-1026,-567,-332,199,183,-515
2,152289,105,188,-2467,-1026,-567,-332,199,183,-515
2,152295,105,188,-2467,-1026,-567,-332,199,183,-515
2,152300,105,188,-2467,-1026,-567,-332,199,183,-515
2,152305,107,186,-2461,-1027,-571,-331,199,183,-515
2,152310,107,186,-2461,-1027,-571,-331,199,183,-515
2,152316,107,186,-2461,-1027,-571,-331,199,183,-515
2,152322,110,185,-2469,-1024,-578,-325,199,183,-515
2,152328,110,185,-2469,-1024,-578,-325,199,183,-515
2,152334,110,185,-2469,-1024,-578,-325,199,183,-515
2,152339,110,185,-2469,-1024,-578,-325,199,183,-515
2,152344,110,185,-2464,-1024,-574,-323,200,188,-530
2,152350,110,185,-2464,-1024,-574,-323,200,188,-530
2,152355,110,185,-2464,-1024,-574,-323,200,188,-530
2,152360,109,183,-2462,-1034,-577,-332,200,188,-530
2,152367,109,183,-2462,-1034,-577,-332,200,188,-530
2,152373,109,183,-2462,-1034,-577,-332,200,188,-530
2,152378,109,183,-2462,-1034,-577,-332,200,188,-530
2,152383,108,184,-2463,-1030,-581,-328,200,188,-530
2,152389,108,184,-2463,-1030,-581,-328,200,188,-530
2,152394,108,184,-2463,-1030,-581,-328,200,188,-530
2,152399,108,184,-2463,-1030,-581,-328,200,188,-530
2,152404,111,181,-2467,-1028,-577,-322,200,188,-530
2,152411,111,181,-2467,-1028,-577,-322,200,188,-530
2,152416,111,181,-2467,-1028,-577,-322,200,188,-530
2,152422,102,185,-2462,-1020,-570,-329,200,188,-530
2,152427,102,185,-2462,-1020,-570,-329,200,188,-530
2,152433,102,185,-2462,-1020,-570,-329,200,188,-530
2,152438,102,185,-2462,-1020,-570,-329,200,188,-530
2,152443,107,185,-2466,-1031,-577,-329,200,188,-530
2,152450,107,185,-2466,-1031,-577,-329,200,188,-530
2,152455,107,185,-2466,-1031,-577,-329,200,188,-530
2,152461,107,183,-2469,-1034,-582,-329,200,188,-530
2,152467,107,183,-2469,-1034,-582,-329,200,188,-530
2,152472,107,183,-2469,-1034,-582,-329,200,188,-530
2,152478,107,183,-2469,-1034,-582,-329,200,188,-530
2,152484,108,184,-2462,-1029,-584,-328,201,191,-529
2,152489,108,184,-2462,-1029,-584,-328,201,191,-529
2,152495,108,184,-2462,-1029,-584,-328,201,191,-529
2,152501,106,183,-2468,-1030,-574,-328,201,191,-529
2,152506,106,183,-2468,-1030,-574,-328,201,191,-529
2,152512,106,183,-2468,-1030,-574,-328,201,191,-529
2,152517,106,183,-2468,-1030,-574,-328,201,191,-529
2,152523,106,182,-2471,-1040,-572,-323,201,191,-529
2,152528,106,182,-2471,-1040,-572,-323,201,191,-529
2,152534,106,182,-2471,-1040,-572,-323,201,191,-529
2,152540,106,182,-2471,-1040,-572,-323,201,191,-529
2,152545,106,186,-2468,-1024,-580,-323,201,191,-529
2,152550,106,186,-2468,-1024,-580,-323,201,191,-529
2,152556,106,186,-2468,-1024,-580,-323,201,191,-529
2,152561,110,185,-2466,-1033,-575,-322,201,191,-529
2,152566,110,185,-2466,-1033,-575,-322,201,191,-529
2,152572,110,185,-2466,-1033,-575,-322,201,191,-529
2,152578,110,185,-2466,-1033,-575,-322,201,191,-529
2,152584,106,184,-2465,-1024,-578,-324,201,191,-529
2,152589,106,184,-2465,-1024,-578,-324,201,191,-529
2,152595,106,184,-2465,-1024,-578,-324,201,191,-529
2,152600,106,184,-2465,-1024,-578,-324,201,191,-529
2,152605,106,185,-2464,-1028,-580,-324,195,187,-519
2,152611,106,185,-2464,-1028,-580,-324,195,187,-519
2,152616,106,185,-2464,-1028,-580,-324,195,187,-519
2,152623,105,182,-2458,-1034,-574,-328,195,187,-519
2,152628,105,182,-2458,-1034,-574,-328,195,187,-519
2,152633,105,182,-2458,-1034,-574,-328,195,187,-519
2,152639,105,182,-2458,-1034,-574,-328,195,187,-519
2,152644,108,182,-2469,-1033,-577,-327,195,187,-519
2,152650,108,182,-2469,-1033,-577,-327,195,187,-519
2,152655,108,182,-2469,-1033,-577,-327,195,187,-519
2,152660,106,183,-2468,-1017,-579,-322,195,187,-519
2,152667,106,183,-2468,-1017,-579,-322,195,187,-519
2,152673,106,183,-2468,-1017,-579,-322,195,187,-519
2,152679,106,183,-2468,-1017,-579,-322,195,187,-519
2,152684,110,186,-2466,-1026,-574,-319,195,187,-519
2,152689,110,186,-2466,-1026,-574,-319,195,187,-519
2,152695,110,186,-2466,-1026,-574,-319,195,187,-519
2,152700,106,186,-2466,-1024,-583,-324,195,187,-519
2,152707,106,186,-2466,-1024,-583,-324,195,187,-519
2,152713,106,186,-2466,-1024,-583,-324,195,187,-519
2,152718,106,186,-2466,-1024,-583,-324,195,187,-519
2,152723,112,185,-2464,-1028,-579,-322,195,187,-519
2,152728,112,185,-2464,-1028,-579,-322,195,187,-519
2,152734,112,185,-2464,-1028,-579,-322,195,187,-519
2,152739,112,185,-2464,-1028,-579,-322,195,187,-519
2,152744,107,184,-2461,-1028,-576,-320,205,191,-529
2,152751,107,184,-2461,-1028,-576,-320,205,191,-529
2,152757,107,184,-2461,-1028,-576,-320,205,191,-529
2,152762,108,185,-2464,-1034,-577,-318,205,191,-529
2,152768,108,185,-2464,-1034,-577,-318,205,191,-529
2,152773,108,185,-2464,-1034,-577,-318,205,191,-529
2,152779,108,185,-2464,-1034,-577,-318,205,191,-529
2,152784,105,185,-2458,-1031,-581,-318,205,191,-529
2,152791,105,185,-2458,-1031,-581,-318,205,191,-529
2,152796,105,185,-2458,-1031,-581,-318,205,191,-529
2,152802,103,182,-2461,-1019,-580,-323,205,191,-529
2,152806,103,182,-2461,-1019,-580,-323,205,191,-529
2,152812,103,182,-2461,-1019,-580,-323,205,191,-529
2,152817,103,182,-2461,-1019,-580,-323,205,191,-529
2,152822,110,186,-2462,-1020,-579,-322,205,191,-529
2,152828,110,186,-2462,-1020,-579,-322,205,191,-529
2,152835,110,186,-2462,-1020,-579,-322,205,191,-529
2,152840,110,186,-2462,-1020,-579,-322,205,191,-529
2,152846,110,182,-2468,-1030,-573,-330,205,191,-529
2,152851,110,182,-2468,-1030,-573,-330,205,191,-529
2,152856,110,182,-2468,-1030,-573,-330,205,191,-529
2,152862,110,182,-2468,-1030,-573,-330,195,185,-535
2,152868,110,182,-2468,-1030,-573,-330,195,185,-535
2,152873,110,182,-2468,-1030,-573,-330,195,185,-535
2,152880,110,182,-2468,-1030,-573,-330,195,185,-535
2,152886,108,182,-2459,-1022,-582,-322,195,185,-535
2,152892,108,182,-2459,-1022,-582,-322,195,185,-535
2,152897,108,182,-2459,-1022,-582,-322,195,185,-535
2,152902,107,184,-2467,-1025,-576,-320,195,185,-535
2,152907,107,184,-2467,-1025,-576,-320,195,185,-535
2,152912,107,184,-2467,-1025,-576,-320,195,185,-535
2,152918,107,184,-2467,-1025,-576,-320,195,185,-535
2,152923,106,183,-2466,-1033,-579,-320,195,185,-535
2,152929,106,183,-2466,-1033,-579,-320,195,185,-535
2,152935,106,183,-2466,-1033,-579,-320,195,185,-535
2,152940,106,183,-2466,-1033,-579,-320,195,185,-535
2,152946,108,187,-2463,-1029,-575,-326,195,185,-535
2,152951,108,187,-2463,-1029,-575,-326,195,185,-535
2,152956,108,187,-2463,-1029,-575,-326,195,185,-535
2,152962,107,182,-2466,-1033,-576,-326,195,185,-535
2,152967,107,182,-2466,-1033,-576,-326,195,185,-535
2,152973,107,182,-2466,-1033,-576,-326,195,185,-535
2,152978,107,182,-2466,-1033,-576,-326,195,185,-535
2,152984,106,184,-2464,-1029,-581,-330,206,190,-522
2,152989,106,184,-2464,-1029,-581,-330,206,190,-522
2,152994,106,184,-2464,-1029,-581,-330,206,190,-522
2,153000,106,184,-2464,-1029,-581,-330,206,190,-522
2,153006,109,186,-2462,-1030,-578,-323,206,190,-522
2,153012,109,186,-2462,-1030,-578,-323,206,190,-522
2,153017,109,186,-2462,-1030,-578,-323,206,190,-522
2,153023,106,184,-2465,-1035,-576,-329,206,190,-522
2,153028,106,184,-2465,-1035,-576,-329,206,190,-522
2,153034,106,184,-2465,-1035,-576,-329,206,190,-522
2,153040,106,184,-2465,-1035,-576,-329,206,190,-522
2,153046,105,184,-2465,-1031,-580,-321,206,190,-522
2,153052,105,184,-2465,-1031,-580,-321,206,190,-522
2,153058,105,184,-2465,-1031,-580,-321,206,190,-522
2,153063,108,181,-2465,-1028,-580,-328,206,190,-522
2,153068,108,181,-2465,-1028,-580,-328,206,190,-522
2,153073,108,181,-2465,-1028,-580,-328,206,190,-522
2,153079,108,181,-2465,-1028,-580,-328,206,190,-522
2,153084,109,184,-2464,-1025,-571,-326,206,190,-522
2,153090,109,184,-2464,-1025,-571,-326,206,190,-522
2,153097,109,184,-2464,-1025,-571,-326,206,190,-522
2,153102,107,184,-2463,-1032,-570,-324,206,190,-522
2,153107,107,184,-2463,-1032,-570,-324,206,190,-522
2,153112,107,184,-2463,-1032,-570,-324,206,190,-522
2,153118,107,184,-2463,-1032,-570,-324,206,190,-522
2,153123,109,188,-2466,-1022,-571,-323,201,195,-525
2,153129,109,188,-2466,-1022,-571,-323,201,195,-525
2,153135,109,188,-2466,-1022,-571,-323,201,195,-525
2,153140,109,188,-2466,-1022,-571,-323,201,195,-525
2,153145,108,188,-2464,-1029,-579,-323,201,195,-525
2,153151,108,188,-2464,-1029,-579,-323,201,195,-525
2,153156,108,188,-2464,-1029,-579,-323,201,195,-525
2,153161,108,184,-2465,-1030,-583,-329,201,195,-525
2,153167,108,184,-2465,-1030,-583,-329,201,195,-525
2,153172,108,184,-2465,-1030,-583,-329,201,195,-525
2,153179,108,184,-2465,-1030,-583,-329,201,195,-525
2,153185,107,186,-2467,-1029,-580,-323,201,195,-525
2,153190,107,186,-2467,-1029,-580,-323,201,195,-525
2,153195,107,186,-2467,-1029,-580,-323,201,195,-525
2,153200,107,186,-2467,-1029,-580,-323,201,195,-525
2,153205,106,184,-2469,-1027,-573,-322,201,195,-525
2,153210,106,184,-2469,-1027,-573,-322,201,195,-525
2,153217,106,184,-2469,-1027,-573,-322,201,195,-525
2,153222,102,184,-2463,-1026,-575,-319,201,195,-525
2,153228,102,184,-2463,-1026,-575,-319,201,195,-525
2,153233,102,184,-2463,-1026,-575,-319,201,195,-525
2,153238,102,184,-2463,-1026,-575,-319,201,195,-525
2,153244,108,186,-2463,-1025,-578,-321,192,188,-518
2,153249,108,186,-2463,-1025,-578,-321,192,188,-518
2,153254,108,186,-2463,-1025,-578,-321,192,188,-518
2,153261,108,186,-2463,-1025,-578,-321,192,188,-518
2,153266,107,183,-2461,-1032,-575,-323,192,188,-518
2,153272,107,183,-2461,-1032,-575,-323,192,188,-518
2,153277,107,183,-2461,-1032,-575,-323,192,188,-518
2,153283,109,184,-2462,-1022,-579,-324,192,188,-518
2,153288,109,184,-2462,-1022,-579,-324,192,188,-518
2,153294,109,184,-2462,-1022,-579,-324,192,188,-518
2,153299,109,184,-2462,-1022,-579,-324,192,188,-518
2,153305,108,185,-2466,-1028,-575,-319,192,188,-518
2,153311,108,185,-2466,-1028,-575,-319,192,188,-518
2,153316,108,185,-2466,-1028,-575,-319,192,188,-518
2,153322,108,184,-2462,-1029,-578,-325,192,188,-518
2,153327,108,184,-2462,-1029,-578,-325,192,188,-518
2,153333,108,184,-2462,-1029,-578,-325,192,188,-518
2,153338,108,184,-2462,-1029,-578,-325,192,188,-518
2,153344,108,183,-2460,-1023,-579,-322,192,188,-518
2,153349,108,183,-2460,-1023,-579,-322,192,188,-518
2,153355,108,183,-2460,-1023,-579,-322,192,188,-518
2,153360,108,183,-2460,-1023,-579,-322,192,188,-518
2,153365,105,183,-2470,-1024,-580,-324,192,188,-518
2,153371,105,183,-2470,-1024,-580,-324,192,188,-518
2,153376,105,183,-2470,-1024,-580,-324,192,188,-518
2,153382,106,183,-2456,-1023,-573,-325,199,189,-523
2,153388,106,183,-2456,-1023,-573,-325,199,189,-523
2,153393,106,183,-2456,-1023,-573,-325,199,189,-523
2,153399,106,183,-2456,-1023,-573,-325,199,189,-523
2,153404,108,185,-2463,-1025,-576,-324,199,189,-523
2,153410,108,185,-2463,-1025,-576,-324,199,189,-523
2,153415,108,185,-2463,-1025,-576,-324,199,189,-523
2,153420,108,185,-2463,-1025,-576,-324,199,189,-523
2,153426,107,182,-2460,-1024,-571,-323,199,189,-523
2,153433,107,182,-2460,-1024,-571,-323,199,189,-523
2,153438,107,182,-2460,-1024,-571,-323,199,189,-523
2,153444,108,186,-2460,-1025,-577,-325,199,189,-523
2,153449,108,186,-2460,-1025,-577,-325,199,189,-523
2,153454,108,186,-2460,-1025,-577,-325,199,189,-523
2,153460,108,186,-2460,-1025,-577,-325,199,189,-523
2,153465,107,184,-2459,-1022,-577,-321,199,189,-523
2,153472,107,184,-2459,-1022,-577,-321,199,189,-523
2,153478,107,184,-2459,-1022,-577,-321,199,189,-523
2,153484,108,184,-2463,-1025,-577,-319,199,189,-523
2,153489,108,184,-2463,-1025,-577,-319,199,189,-523
2,153495,108,184,-2463,-1025,-577,-319,199,189,-523
2,153500,108,184,-2463,-1025,-577,-319,199,189,-523
2,153505,109,183,-2463,-1025,-579,-319,198,184,-530
2,153511,109,183,-2463,-1025,-579,-319,198,184,-530
2,153517,109,183,-2463,-1025,-579,-319,198,184,-530
2,153522,105,184,-2467,-1024,-579,-320,198,184,-530
2,153528,105,184,-2467,-1024,-579,-320,198,184,-530
2,153533,105,184,-2467,-1024,-579,-320,198,184,-530
2,153539,105,184,-2467,-1024,-579,-320,198,184,-530
2,153544,106,185,-2466,-1022,-577,-323,198,184,-530
2,153549,106,185,-2466,-1022,-577,-323,198,184,-530
2,153555,106,185,-2466,-1022,-577,-323,198,184,-530
2,153561,106,185,-2466,-1022,-577,-323,198,184,-530
2,153567,104,182,-2463,-1026,-580,-326,198,184,-530
2,153572,104,182,-2463,-1026,-580,-326,198,184,-530
2,153578,104,182,-2463,-1026,-580,-326,198,184,-530
2,153583,110,187,-2463,-1020,-577,-325,198,184,-530
2,153589,110,187,-2463,-1020,-577,-325,198,184,-530
2,153594,110,187,-2463,-1020,-577,-325,198,184,-530
2,153600,110,187,-2463,-1020,-577,-325,198,184,-530
2,153606,108,185,-2465,-1025,-580,-328,198,184,-530
2,153612,108,185,-2465,-1025,-580,-328,198,184,-530
2,153617,108,185,-2465,-1025,-580,-328,198,184,-530
2,153623,108,183,-2455,-1025,-576,-330,203,183,-519
2,153628,108,183,-2455,-1025,-576,-330,203,183,-519
2,153634,108,183,-2455,-1025,-576,-330,203,183,-519
2,153639,108,183,-2455,-1025,-576,-330,203,183,-519
2,153646,109,187,-2457,-1032,-575,-330,203,183,-519
2,153651,109,187,-2457,-1032,-575,-330,203,183,-519
2,153656,109,187,-2457,-1032,-575,-330,203,183,-519
2,153662,106,186,-2459,-1027,-574,-326,203,183,-519
2,153667,106,186,-2459,-1027,-574,-326,203,183,-519
2,153673,106,186,-2459,-1027,-574,-326,203,183,-519
2,153678,106,186,-2459,-1027,-574,-326,203,183,-519
2,153684,107,187,-2462,-1026,-573,-325,203,183,-519
2,153691,107,187,-2462,-1026,-573,-325,203,183,-519
2,153696,107,187,-2462,-1026,-573,-325,203,183,-519
2,153701,107,187,-2462,-1026,-573,-325,203,183,-519
2,153706,106,182,-2465,-1025,-578,-328,203,183,-519
2,153712,106,182,-2465,-1025,-578,-328,203,183,-519
2,153717,106,182,-2465,-1025,-578,-328,203,183,-519
2,153723,108,186,-2463,-1030,-577,-331,203,183,-519
2,153729,108,186,-2463,-1030,-577,-331,203,183,-519
2,153735,108,186,-2463,-1030,-577,-331,203,183,-519
2,153740,108,186,-2463,-1030,-577,-331,203,183,-519
2,153745,107,183,-2464,-1012,-571,-333,203,183,-519
2,153750,107,183,-2464,-1012,-571,-333,203,183,-519
2,153756,107,183,-2464,-1012,-571,-333,203,183,-519
2,153761,107,183,-2464,-1012,-571,-333,203,183,-519
2,153767,106,186,-2465,-1012,-575,-326,196,184,-532
2,153773,106,186,-2465,-1012,-575,-326,196,184,-532
2,153779,106,186,-2465,-1012,-575,-326,196,184,-532
2,153784,109,188,-2470,-1023,-583,-318,196,184,-532
2,153789,109,188,-2470,-1023,-583,-318,196,184,-532
2,153794,109,188,-2470,-1023,-583,-318,196,184,-532
2,153800,109,188,-2470,-1023,-583,-318,196,184,-532
2,153805,109,183,-2462,-1029,-578,-325,196,184,-532
2,153811,109,183,-2462,-1029,-578,-325,196,184,-532
2,153817,109,183,-2462,-1029,-578,-325,196,184,-532
2,153822,105,182,-2469,-1020,-577,-321,196,184,-532
2,153828,105,182,-2469,-1020,-577,-321,196,184,-532
2,153833,105,182,-2469,-1020,-577,-321,196,184,-532
2,153839,105,182,-2469,-1020,-577,-321,196,184,-532
2,153844,107,184,-2465,-1025,-572,-329,196,184,-532
2,153850,107,184,-2465,-1025,-572,-329,196,184,-532
2,153856,107,184,-2465,-1025,-572,-329,196,184,-532
2,153862,107,184,-2465,-1025,-572,-329,196,184,-532
2,153867,106,183,-2465,-1020,-569,-325,196,184,-532
2,153872,106,183,-2465,-1020,-569,-325,196,184,-532
2,153877,106,183,-2465,-1020,-569,-325,196,184,-532
2,153883,105,184,-2463,-1026,-581,-328,204,192,-528
2,153888,105,184,-2463,-1026,-581,-328,204,192,-528
2,153894,105,184,-2463,-1026,-581,-328,204,192,-528
2,153899,105,184,-2463,-1026,-581,-328,204,192,-528
2,153905,104,183,-2460,-1016,-571,-325,204,192,-528
2,153910,104,183,-2460,-1016,-571,-325,204,192,-528
2,153916,104,183,-2460,-1016,-571,-325,204,192,-528
2,153921,104,183,-2460,-1016,-571,-325,204,192,-528
2,153926,106,184,-2464,-1025,-577,-324,204,192,-528
2,153931,106,184,-2464,-1025,-577,-324,204,192,-528
2,153937,106,184,-2464,-1025,-577,-324,204,192,-528
2,153943,107,182,-2465,-1019,-571,-320,204,192,-528
2,153948,107,182,-2465,-1019,-571,-320,204,192,-528
2,153954,107,182,-2465,-1019,-571,-320,204,192,-528
2,153959,107,182,-2465,-1019,-571,-320,204,192,-528
2,153965,106,182,-2470,-1022,-570,-322,204,192,-528
2,153970,106,182,-2470,-1022,-570,-322,204,192,-528
2,153975,106,182,-2470,-1022,-570,-322,204,192,-528
2,153981,106,182,-2470,-1022,-570,-322,204,192,-528
2,153987,108,183,-2469,-1030,-580,-328,204,192,-528
2,153992,108,183,-2469,-1030,-580,-328,204,192,-528
2,153998,108,183,-2469,-1030,-580,-328,204,192,-528
2,154003,107,184,-2466,-1035,-577,-325,204,192,-528
2,154009,107,184,-2466,-1035,-577,-325,204,192,-528
2,154014,107,184,-2466,-1035,-577,-325,204,192,-528
2,154019,107,184,-2466,-1035,-577,-325,204,192,-528
2,154025,108,185,-2464,-1032,-578,-317,197,181,-525
2,154031,108,185,-2464,-1032,-578,-317,197,181,-525
2,154036,108,185,-2464,-1032,-578,-317,197,181,-525
2,154042,108,185,-2464,-1032,-578,-317,197,181,-525
2,154048,110,183,-2462,-1024,-572,-326,197,181,-525
2,154053,110,183,-2462,-1024,-572,-326,197,181,-525
2,154058,110,183,-2462,-1024,-572,-326,197,181,-525
2,154063,108,182,-2464,-1030,-579,-323,197,181,-525
2,154070,108,182,-2464,-1030,-579,-323,197,181,-525
2,154075,108,182,-2464,-1030,-579,-323,197,181,-525
2,154080,108,182,-2464,-1030,-579,-323,197,181,-525
2,154085,106,185,-2459,-1030,-580,-321,197,181,-525
2,154090,106,185,-2459,-1030,-580,-321,197,181,-525
2,154096,106,185,-2459,-1030,-580,-321,197,181,-525
2,154101,106,185,-2459,-1030,-580,-321,197,181,-525
2,154107,105,182,-2464,-1021,-577,-327,197,181,-525
2,154113,105,182,-2464,-1021,-577,-327,197,181,-525
2,154119,105,182,-2464,-1021,-577,-327,197,181,-525
2,154124,106,183,-2463,-1021,-575,-325,197,181,-525
2,154129,106,183,-2463,-1021,-575,-325,197,181,-525
2,154134,106,183,-2463,-1021,-575,-325,197,181,-525
2,154140,106,183,-2463,-1021,-575,-325,197,181,-525
2,154145,107,183,-2463,-1030,-572,-323,201,185,-525
2,154152,107,183,-2463,-1030,-572,-323,201,185,-525
2,154160,107,183,-2463,-1030,-572,-323,201,185,-525
2,154168,109,182,-2463,-1029,-569,-321,201,185,-525
2,154175,109,182,-2463,-1029,-569,-321,201,185,-525
2,154180,109,182,-2463,-1029,-569,-321,201,185,-525
2,154185,109,184,-2462,-1029,-583,-325,201,185,-525
2,154191,109,184,-2462,-1029,-583,-325,201,185,-525
2,154196,109,184,-2462,-1029,-583,-325,201,185,-525
2,154202,109,184,-2462,-1029,-583,-325,201,185,-525
2,154208,105,183,-2463,-1031,-581,-328,201,185,-525
2,154213,105,183,-2463,-1031,-581,-328,201,185,-525
2,154218,105,183,-2463,-1031,-581,-328,201,185,-525
2,154224,109,183,-2468,-1024,-581,-323,201,185,-525
2,154229,109,183,-2468,-1024,-581,-323,201,185,-525
2,154235,109,183,-2468,-1024,-581,-323,201,185,-525
2,154241,109,183,-2468,-1024,-581,-323,201,185,-525
2,154246,106,184,-2466,-1026,-583,-326,201,185,-525
2,154251,106,184,-2466,-1026,-583,-326,201,185,-525
2,154257,106,184,-2466,-1026,-583,-326,201,185,-525
2,154262,106,184,-2466,-1026,-583,-326,201,185,-525
2,154268,108,184,-2466,-1027,-575,-329,188,184,-516
2,154273,108,184,-2466,-1027,-575,-329,188,184,-516
2,154278,108,184,-2466,-1027,-575,-329,188,184,-516
2,154285,105,183,-2463,-1027,-561,-325,188,184,-516
2,154290,105,183,-2463,-1027,-561,-325,188,184,-516
2,154295,105,183,-2463,-1027,-561,-325,188,184,-516
2,154301,105,183,-2463,-1027,-561,-325,188,184,-516
2,154307,111,183,-2463,-1029,-570,-317,188,184,-516
2,154312,111,183,-2463,-1029,-570,-317,188,184,-516
2,154318,111,183,-2463,-1029,-570,-317,188,184,-516
2,154323,110,184,-2468,-1032,-575,-326,188,184,-516
2,154329,110,184,-2468,-1032,-575,-326,188,184,-516
2,154334,110,184,-2468,-1032,-575,-326,188,184,-516
2,154339,110,184,-2468,-1032,-575,-326,188,184,-516
2,154345,108,187,-2467,-1023,-573,-330,188,184,-516
2,154350,108,187,-2467,-1023,-573,-330,188,184,-516
2,154355,108,187,-2467,-1023,-573,-330,188,184,-516
2,154361,108,187,-2467,-1023,-573,-330,188,184,-516
2,154366,107,182,-2469,-1023,-571,-327,188,184,-516
2,154373,107,182,-2469,-1023,-571,-327,188,184,-516
2,154378,107,182,-2469,-1023,-571,-327,188,184,-516
2,154383,109,184,-2466,-1026,-578,-332,188,184,-516
2,154388,109,184,-2466,-1026,-578,-332,188,184,-516
2,154394,109,184,-2466,-1026,-578,-332,188,184,-516
2,154399,109,184,-2466,-1026,-578,-332,188,184,-516
2,154404,107,185,-2462,-1026,-574,-323,201,183,-531
2,154411,107,185,-2462,-1026,-574,-323,201,183,-531
2,154415,107,185,-2462,-1026,-574,-323,201,183,-531
2,154421,107,185,-2462,-1026,-574,-323,201,183,-531
2,154427,107,183,-2465,-1027,-576,-318,201,183,-531
2,154432,107,183,-2465,-1027,-576,-318,201,183,-531
2,154437,107,183,-2465,-1027,-576,-318,201,183,-531
2,154443,104,184,-2463,-1030,-579,-322,201,183,-531
2,154448,104,184,-2463,-1030,-579,-322,201,183,-531
2,154455,104,184,-2463,-1030,-579,-322,201,183,-531
2,154460,104,184,-2463,-1030,-579,-322,201,183,-531
2,154466,107,182,-2464,-1022,-577,-321,201,183,-531
2,154472,107,182,-2464,-1022,-577,-321,201,183,-531
2,154477,107,182,-2464,-1022,-577,-321,201,183,-531
2,154483,110,181,-2464,-1019,-574,-320,201,183,-531
2,154488,110,181,-2464,-1019,-574,-320,201,183,-531
2,154493,110,181,-2464,-1019,-574,-320,201,183,-531
2,154500,110,181,-2464,-1019,-574,-320,201,183,-531
2,154506,107,186,-2466,-1032,-576,-326,201,183,-531
2,154511,107,186,-2466,-1032,-576,-326,201,183,-531
2,154517,107,186,-2466,-1032,-576,-326,201,183,-531
2,154522,107,186,-2466,-1032,-576,-326,201,183,-531
2,154528,107,185,-2466,-1024,-573,-324,193,197,-527
2,154533,107,185,-2466,-1024,-573,-324,193,197,-527
2,154540,107,185,-2466,-1024,-573,-324,193,197,-527
2,154545,105,184,-2469,-1024,-576,-322,193,197,-527
2,154550,105,184,-2469,-1024,-576,-322,193,197,-527
2,154556,105,184,-2469,-1024,-576,-322,193,197,-527
2,154562,105,184,-2469,-1024,-576,-322,193,197,-527
2,154567,107,185,-2469,-1026,-581,-320,193,197,-527
2,154572,107,185,-2469,-1026,-581,-320,193,197,-527
2,154577,107,185,-2469,-1026,-581,-320,193,197,-527
2,154584,105,185,-2468,-1025,-578,-323,193,197,-527
2,154589,105,185,-2468,-1025,-578,-323,193,197,-527
2,154595,105,185,-2468,-1025,-578,-323,193,197,-527
2,154600,105,185,-2468,-1025,-578,-323,193,197,-527
2,154605,105,185,-2468,-1021,-579,-325,193,197,-527
2,154611,105,185,-2468,-1021,-579,-325,193,197,-527
2,154616,105,185,-2468,-1021,-579,-325,193,197,-527
2,154622,105,185,-2468,-1021,-579,-325,193,197,-527
2,154628,105,182,-2476,-1022,-575,-321,193,197,-527
2,154634,105,182,-2476,-1022,-575,-321,193,197,-527
2,154639,105,182,-2476,-1022,-575,-321,193,197,-527
2,154645,108,185,-2466,-1020,-578,-328,193,197,-527
2,154650,108,185,-2466,-1020,-578,-328,193,197,-527
2,154656,108,185,-2466,-1020,-578,-328,193,197,-527
2,154661,108,185,-2466,-1020,-578,-328,193,197,-527
2,154668,108,183,-2461,-1020,-573,-323,198,188,-526
2,154672,108,183,-2461,-1020,-573,-323,198,188,-526
2,154678,108,183,-2461,-1020,-573,-323,198,188,-526
2,154683,108,184,-2467,-1028,-583,-320,198,188,-526
2,154688,108,184,-2467,-1028,-583,-320,198,188,-526
2,154694,108,184,-2467,-1028,-583,-320,198,188,-526
2,154699,108,184,-2467,-1028,-583,-320,198,188,-526
2,154704,105,182,-2469,-1024,-576,-319,198,188,-526
2,154710,105,182,-2469,-1024,-576,-319,198,188,-526
2,154716,105,182,-2469,-1024,-576,-319,198,188,-526
2,154721,105,182,-2469,-1024,-576,-319,198,188,-526
2,154727,108,183,-2464,-1026,-575,-325,198,188,-526
2,154733,108,183,-2464,-1026,-575,-325,198,188,-526
2,154738,108,183,-2464,-1026,-575,-325,198,188,-526
2,154743,108,183,-2467,-1023,-576,-333,198,188,-526
2,154748,108,183,-2467,-1023,-576,-333,198,188,-526
2,154755,108,183,-2467,-1023,-576,-333,198,188,-526
2,154761,108,183,-2467,-1023,-576,-333,198,188,-526
2,154766,108,181,-2463,-1023,-578,-321,198,188,-526
2,154772,108,181,-2463,-1023,-578,-321,198,188,-526
2,154777,108,181,-2463,-1023,-578,-321,198,188,-526
2,154783,108,181,-2463,-1023,-578,-321,198,188,-526
2,154788,105,183,-2461,-1024,-569,-321,195,189,-529
2,154795,105,183,-2461,-1024,-569,-321,195,189,-529
2,154800,105,183,-2461,-1024,-569,-321,195,189,-529
2,154806,108,182,-2461,-1021,-571,-324,195,189,-529
2,154811,108,182,-2461,-1021,-571,-324,195,189,-529
2,154817,108,182,-2461,-1021,-571,-324,195,189,-529
2,154822,108,182,-2461,-1021,-571,-324,195,189,-529
2,154827,106,182,-2469,-1022,-581,-325,195,189,-529
2,154833,106,182,-2469,-1022,-581,-325,195,189,-529
2,154839,106,182,-2469,-1022,-581,-325,195,189,-529
2,154845,108,183,-2465,-1027,-581,-325,195,189,-529
2,154850,108,183,-2465,-1027,-581,-325,195,189,-529
2,154856,108,183,-2465,-1027,-581,-325,195,189,-529
2,154861,108,183,-2465,-1027,-581,-325,195,189,-529
2,154867,108,186,-2472,-1025,-578,-330,195,189,-529
2,154872,108,186,-2472,-1025,-578,-330,195,189,-529
2,154878,108,186,-2472,-1025,-578,-330,195,189,-529
2,154884,107,187,-2469,-1017,-574,-330,195,189,-529
2,154890,107,187,-2469,-1017,-574,-330,195,189,-529
2,154895,107,187,-2469,-1017,-574,-330,195,189,-529
2,154900,107,187,-2469,-1017,-574,-330,195,189,-529
2,154906,105,182,-2467,-1030,-577,-323,192,188,-526
2,154911,105,182,-2467,-1030,-577,-323,192,188,-526
2,154917,105,182,-2467,-1030,-577,-323,192,188,-526
2,154923,105,182,-2467,-1030,-577,-323,192,188,-526
2,154928,104,183,-2464,-1035,-579,-325,192,188,-526
2,154933,104,183,-2464,-1035,-579,-325,192,188,-526
2,154938,104,183,-2464,-1035,-579,-325,192,188,-526
2,154944,106,184,-2458,-1033,-581,-325,192,188,-526
2,154948,106,184,-2458,-1033,-581,-325,192,188,-526
2,154954,106,184,-2458,-1033,-581,-325,192,188,-526
2,154959,106,184,-2458,-1033,-581,-325,192,188,-526
2,154964,107,184,-2468,-1019,-580,-322,192,188,-526
2,154970,107,184,-2468,-1019,-580,-322,192,188,-526
2,154975,107,184,-2468,-1019,-580,-322,192,188,-526
2,154981,107,184,-2468,-1019,-580,-322,192,188,-526
2,154986,106,182,-2462,-1019,-578,-328,192,188,-526
2,154991,106,182,-2462,-1019,-578,-328,192,188,-526
2,154996,106,182,-2462,-1019,-578,-328,192,188,-526
2,155002,106,182,-2462,-1019,-578,-328,192,188,-526
2,155008,107,186,-2466,-1024,-570,-328,192,188,-526
2,155013,107,186,-2466,-1024,-570,-328,192,188,-526
2,155018,107,186,-2466,-1024,-570,-328,192,188,-526
2,155023,107,186,-2466,-1024,-570,-328,192,188,-526
2,155029,108,185,-2468,-1029,-577,-329,192,188,-526
2,155034,108,185,-2468,-1029,-577,-329,192,188,-526
2,155040,108,185,-2468,-1029,-577,-329,192,188,-526
2,155046,107,183,-2461,-1029,-572,-329,198,182,-528
2,155052,107,183,-2461,-1029,-572,-329,198,182,-528
2,155058,107,183,-2461,-1029,-572,-329,198,182,-528
2,155063,107,183,-2461,-1029,-572,-329,198,182,-528
2,155068,107,184,-2462,-1022,-580,-329,198,182,-528
2,155074,107,184,-2462,-1022,-580,-329,198,182,-528
2,155080,107,184,-2462,-1022,-580,-329,198,182,-528
2,155085,109,182,-2465,-1022,-577,-329,198,182,-528
2,155091,109,182,-2465,-1022,-577,-329,198,182,-528
2,155098,109,182,-2465,-1022,-577,-329,198,182,-528
2,155103,109,182,-2465,-1022,-577,-329,198,182,-528
2,155108,106,181,-2465,-1030,-571,-323,198,182,-528
2,155114,106,181,-2465,-1030,-571,-323,198,182,-528
2,155119,106,181,-2465,-1030,-571,-323,198,182,-528
2,155125,108,184,-2471,-1025,-576,-331,198,182,-528
2,155130,108,184,-2471,-1025,-576,-331,198,182,-528
2,155136,108,184,-2471,-1025,-576,-331,198,182,-528
2,155142,108,184,-2471,-1025,-576,-331,198,182,-528
2,155147,105,186,-2463,-1022,-577,-327,198,182,-528
2,155153,105,186,-2463,-1022,-577,-327,198,182,-528
2,155159,105,186,-2463,-1022,-577,-327,198,182,-528
2,155164,105,186,-2464,-1026,-579,-327,199,191,-523
2,155169,105,186,-2464,-1026,-579,-327,199,191,-523
2,155175,105,186,-2464,-1026,-579,-327,199,191,-523
2,155181,105,186,-2464,-1026,-579,-327,199,191,-523
2,155186,110,184,-2468,-1021,-578,-328,199,191,-523
2,155192,110,184,-2468,-1021,-578,-328,199,191,-523
2,155197,110,184,-2468,-1021,-578,-328,199,191,-523
2,155203,110,184,-2468,-1021,-578,-328,199,191,-523
2,155208,109,185,-2461,-1029,-573,-322,199,191,-523
2,155213,109,185,-2461,-1029,-573,-322,199,191,-523
2,155218,109,185,-2461,-1029,-573,-322,199,191,-523
2,155225,107,184,-2466,-1016,-572,-321,199,191,-523
2,155230,107,184,-2466,-1016,-572,-321,199,191,-523
2,155235,107,184,-2466,-1016,-572,-321,199,191,-523
2,155241,107,184,-2466,-1016,-572,-321,199,191,-523
2,155246,108,186,-2467,-1026,-569,-319,199,191,-523
2,155252,108,186,-2467,-1026,-569,-319,199,191,-523
2,155257,108,186,-2467,-1026,-569,-319,199,191,-523
2,155262,108,186,-2467,-1026,-569,-319,199,191,-523
2,155268,110,185,-2469,-1024,-575,-317,199,191,-523
2,155273,110,185,-2469,-1024,-575,-317,199,191,-523
2,155279,110,185,-2469,-1024,-575,-317,199,191,-523
2,155284,105,184,-2464,-1026,-573,-326,199,191,-523
2,155290,105,184,-2464,-1026,-573,-326,199,191,-523
2,155295,105,184,-2464,-1026,-573,-326,199,191,-523
2,155301,105,184,-2464,-1026,-573,-326,199,191,-523
2,155307,111,183,-2459,-1035,-577,-322,208,194,-524
2,155312,111,183,-2459,-1035,-577,-322,208,194,-524
2,155318,111,183,-2459,-1035,-577,-322,208,194,-524
2,155323,111,183,-2459,-1035,-577,-322,208,194,-524
2,155329,108,183,-2460,-1023,-578,-331,208,194,-524
2,155334,108,183,-2460,-1023,-578,-331,208,194,-524
2,155340,108,183,-2460,-1023,-578,-331,208,194,-524
2,155345,107,184,-2464,-1017,-579,-334,208,194,-524
2,155351,107,184,-2464,-1017,-579,-334,208,194,-524
2,155357,107,184,-2464,-1017,-579,-334,208,194,-524
2,155362,107,184,-2464,-1017,-579,-334,208,194,-524
2,155367,103,186,-2466,-1019,-575,-322,208,194,-524
2,155372,103,186,-2466,-1019,-575,-322,208,194,-524
2,155378,103,186,-2466,-1019,-575,-322,208,194,-524
2,155383,103,186,-2466,-1019,-575,-322,208,194,-524
2,155389,109,185,-2469,-1022,-582,-329,208,194,-524
2,155395,109,185,-2469,-1022,-582,-329,208,194,-524
2,155400,109,185,-2469,-1022,-582,-329,208,194,-524
2,155405,109,183,-2467,-1021,-577,-331,208,194,-524
2,155411,109,183,-2467,-1021,-577,-331,208,194,-524
2,155416,109,183,-2467,-1021,-577,-331,208,194,-524
2,155422,109,183,-2467,-1021,-577,-331,208,194,-524
2,155427,107,181,-2459,-1021,-576,-322,201,195,-531
2,155433,107,181,-2459,-1021,-576,-322,201,195,-531
2,155438,107,181,-2459,-1021,-576,-322,201,195,-531
2,155444,107,181,-2459,-1021,-576,-322,201,195,-531
2,155449,109,183,-2466,-1022,-575,-325,201,195,-531
2,155455,109,183,-2466,-1022,-575,-325,201,195,-531
2,155461,109,183,-2466,-1022,-575,-325,201,195,-531
2,155466,106,184,-2462,-1029,-582,-330,201,195,-531
2,155471,106,184,-2462,-1029,-582,-330,201,195,-531
2,155478,106,184,-2462,-1029,-582,-330,201,195,-531
2,155483,106,184,-2462,-1029,-582,-330,201,195,-531
2,155488,107,183,-2468,-1019,-577,-319,201,195,-531
2,155494,107,183,-2468,-1019,-577,-319,201,195,-531
2,155499,107,183,-2468,-1019,-577,-319,201,195,-531
2,155504,104,184,-2465,-1019,-577,-330,201,195,-531
2,155510,104,184,-2465,-1019,-577,-330,201,195,-531
2,155515,104,184,-2465,-1019,-577,-330,201,195,-531
2,155521,104,184,-2465,-1019,-577,-330,201,195,-531
2,155526,105,184,-2465,-1024,-581,-337,201,195,-531
2,155531,105,184,-2465,-1024,-581,-337,201,195,-531
2,155536,105,184,-2465,-1024,-581,-337,201,195,-531
2,155542,105,184,-2465,-1024,-581,-337,201,195,-531
2,155547,105,185,-2462,-1024,-576,-322,187,195,-519
2,155553,105,185,-2462,-1024,-576,-322,187,195,-519
2,155558,105,185,-2462,-1024,-576,-322,187,195,-519
2,155564,105,185,-2462,-1024,-576,-322,187,195,-519
2,155569,103,184,-2467,-1020,-571,-320,187,195,-519
2,155574,103,184,-2467,-1020,-571,-320,187,195,-519
2,155580,103,184,-2467,-1020,-571,-320,187,195,-519
2,155585,106,181,-2471,-1025,-573,-322,187,195,-519
2,155591,106,181,-2471,-1025,-573,-322,187,195,-519
2,155596,106,181,-2471,-1025,-573,-322,187,195,-519
2,155601,106,181,-2471,-1025,-573,-322,187,195,-519
2,155607,108,182,-2467,-1028,-579,-328,187,195,-519
2,155613,108,182,-2467,-1028,-579,-328,187,195,-519
2,155618,108,182,-2467,-1028,-579,-328,187,195,-519
2,155624,108,182,-2467,-1028,-579,-328,187,195,-519
2,155629,106,185,-2467,-1016,-575,-329,187,195,-519
2,155634,106,185,-2467,-1016,-575,-329,187,195,-519
2,155639,106,185,-2467,-1016,-575,-329,187,195,-519
2,155645,108,184,-2461,-1025,-568,-326,187,195,-519
2,155651,108,184,-2461,-1025,-568,-326,187,195,-519
2,155657,108,184,-2461,-1025,-568,-326,187,195,-519
2,155662,108,184,-2461,-1025,-568,-326,187,195,-519
2,155668,107,187,-2463,-1024,-580,-321,187,195,-519
2,155674,107,187,-2463,-1024,-580,-321,187,195,-519
2,155679,107,187,-2463,-1024,-580,-321,187,195,-519
2,155685,108,185,-2465,-1021,-581,-326,197,193,-527
2,155691,108,185,-2465,-1021,-581,-326,197,193,-527
2,155697,108,185,-2465,-1021,-581,-326,197,193,-527
2,155701,108,185,-2465,-1021,-581,-326,197,193,-527
2,155707,108,183,-2468,-1019,-582,-332,197,193,-527
2,155712,108,183,-2468,-1019,-582,-332,197,193,-527
2,155718,108,183,-2468,-1019,-582,-332,197,193,-527
2,155723,108,183,-2468,-1019,-582,-332,197,193,-527
2,155729,106,184,-2468,-1025,-581,-324,197,193,-527
2,155735,106,184,-2468,-1025,-581,-324,197,193,-527
2,155741,106,184,-2468,-1025,-581,-324,197,193,-527
2,155746,108,184,-2461,-1028,-573,-328,197,193,-527
2,155751,108,184,-2461,-1028,-573,-328,197,193,-527
2,155757,108,184,-2461,-1028,-573,-328,197,193,-527
2,155762,108,184,-2461,-1028,-573,-328,197,193,-527
2,155768,108,186,-2465,-1026,-576,-331,197,193,-527
2,155773,108,186,-2465,-1026,-576,-331,197,193,-527
2,155779,108,186,-2465,-1026,-576,-331,197,193,-527
2,155784,108,186,-2465,-1026,-576,-331,197,193,-527
2,155789,108,183,-2464,-1030,-575,-325,197,193,-527
2,155795,108,183,-2464,-1030,-575,-325,197,193,-527
2,155800,108,183,-2464,-1030,-575,-325,197,193,-527
2,155806,108,185,-2463,-1030,-577,-323,197,187,-533
2,155811,108,185,-2463,-1030,-577,-323,197,187,-533
2,155816,108,185,-2463,-1030,-577,-323,197,187,-533
2,155823,108,185,-2463,-1030,-577,-323,197,187,-533
2,155828,106,186,-2463,-1021,-575,-320,197,187,-533
2,155833,106,186,-2463,-1021,-575,-320,197,187,-533
2,155839,106,186,-2463,-1021,-575,-320,197,187,-533
2,155844,106,186,-2463,-1021,-575,-320,197,187,-533
2,155850,105,186,-2466,-1025,-577,-321,197,187,-533
2,155855,105,186,-2466,-1025,-577,-321,197,187,-533
2,155862,105,186,-2466,-1025,-577,-321,197,187,-533
2,155866,108,184,-2466,-1028,-578,-326,197,187,-533
2,155872,108,184,-2466,-1028,-578,-326,197,187,-533
2,155878,108,184,-2466,-1028,-578,-326,197,187,-533
2,155883,108,184,-2466,-1028,-578,-326,197,187,-533
2,155889,106,181,-2468,-1023,-568,-327,197,187,-533
2,155894,106,181,-2468,-1023,-568,-327,197,187,-533
2,155900,106,181,-2468,-1023,-568,-327,197,187,-533
2,155906,108,185,-2467,-1031,-574,-333,197,187,-533
2,155912,108,185,-2467,-1031,-574,-333,197,187,-533
2,155917,108,185,-2467,-1031,-574,-333,197,187,-533
2,155923,108,185,-2467,-1031,-574,-333,197,187,-533
2,155929,107,186,-2469,-1027,-569,-322,197,187,-533
2,155934,107,186,-2469,-1027,-569,-322,197,187,-533
2,155939,107,186,-2469,-1027,-569,-322,197,187,-533
2,155945,107,186,-2466,-1021,-580,-322,196,188,-524
2,155951,107,186,-2466,-1021,-580,-322,196,188,-524
2,155956,107,186,-2466,-1021,-580,-322,196,188,-524
2,155962,107,186,-2466,-1021,-580,-322,196,188,-524
2,155967,107,182,-2461,-1027,-587,-321,196,188,-524
2,155973,107,182,-2461,-1027,-587,-321,196,188,-524
2,155978,107,182,-2461,-1027,-587,-321,196,188,-524
2,155983,107,182,-2461,-1027,-587,-321,196,188,-524
2,155988,103,183,-2459,-1022,-588,-328,196,188,-524
2,155994,103,183,-2459,-1022,-588,-328,196,188,-524
2,156000,103,183,-2459,-1022,-588,-328,196,188,-524
2,156005,109,186,-2465,-1025,-579,-331,196,188,-524
2,156011,109,186,-2465,-1025,-579,-331,196,188,-524
2,156016,109,186,-2465,-1025,-579,-331,196,188,-524
2,156022,109,186,-2465,-1025,-579,-331,196,188,-524
2,156027,106,185,-2461,-1021,-575,-323,196,188,-524
2,156034,106,185,-2461,-1021,-575,-323,196,188,-524
2,156039,106,185,-2461,-1021,-575,-323,196,188,-524
2,156045,105,188,-2472,-1022,-571,-330,196,188,-524
2,156051,105,188,-2472,-1022,-571,-330,196,188,-524
2,156056,105,188,-2472,-1022,-571,-330,196,188,-524
2,156061,105,188,-2472,-1022,-571,-330,196,188,-524
2,156067,106,187,-2461,-1029,-574,-329,187,191,-533
2,156072,106,187,-2461,-1029,-574,-329,187,191,-533
2,156078,106,187,-2461,-1029,-574,-329,187,191,-533
2,156085,106,187,-2461,-1029,-574,-329,187,191,-533
2,156090,108,184,-2463,-1032,-581,-323,187,191,-533
2,156096,108,184,-2463,-1032,-581,-323,187,191,-533
2,156102,108,184,-2463,-1032,-581,-323,187,191,-533
2,156107,108,181,-2464,-1023,-576,-328,187,191,-533
2,156113,108,181,-2464,-1023,-576,-328,187,191,-533
2,156119,108,181,-2464,-1023,-576,-328,187,191,-533
2,156124,108,181,-2464,-1023,-576,-328,187,191,-533
2,156129,108,181,-2465,-1027,-575,-326,187,191,-533
2,156135,108,181,-2465,-1027,-575,-326,187,191,-533
2,156141,108,181,-2465,-1027,-575,-326,187,191,-533
2,156146,110,185,-2467,-1026,-579,-322,187,191,-533
2,156151,110,185,-2467,-1026,-579,-322,187,191,-533
2,156157,110,185,-2467,-1026,-579,-322,187,191,-533
2,156163,110,185,-2467,-1026,-579,-322,187,191,-533
2,156169,109,183,-2469,-1022,-568,-321,187,191,-533
2,156174,109,183,-2469,-1022,-568,-321,187,191,-533
2,156180,109,183,-2469,-1022,-568,-321,187,191,-533
2,156185,108,186,-2467,-1022,-573,-330,199,181,-527
2,156191,108,186,-2467,-1022,-573,-330,199,181,-527
2,156196,108,186,-2467,-1022,-573,-330,199,181,-527
2,156203,108,186,-2467,-1022,-573,-330,199,181,-527
2,156208,105,185,-2462,-1026,-582,-332,199,181,-527
2,156213,105,185,-2462,-1026,-582,-332,199,181,-527
2,156219,105,185,-2462,-1026,-582,-332,199,181,-527
2,156224,105,185,-2462,-1026,-582,-332,199,181,-527
2,156229,106,184,-2464,-1027,-582,-326,199,181,-527
2,156235,106,184,-2464,-1027,-582,-326,199,181,-527
2,156240,106,184,-2464,-1027,-582,-326,199,181,-527
2,156247,111,184,-2463,-1030,-581,-326,199,181,-527
2,156252,111,184,-2463,-1030,-581,-326,199,181,-527
2,156258,111,184,-2463,-1030,-581,-326,199,181,-527
2,156263,111,184,-2463,-1030,-581,-326,199,181,-527
2,156269,105,186,-2467,-1023,-572,-324,199,181,-527
2,156274,105,186,-2467,-1023,-572,-324,199,181,-527
2,156280,105,186,-2467,-1023,-572,-324,199,181,-527
2,156285,105,187,-2469,-1020,-575,-326,199,181,-527
2,156291,105,187,-2469,-1020,-575,-326,199,181,-527
2,156297,105,187,-2469,-1020,-575,-326,199,181,-527
2,156302,105,187,-2469,-1020,-575,-326,199,181,-527
2,156307,106,183,-2466,-1020,-572,-331,199,181,-527
2,156313,106,183,-2466,-1020,-572,-331,199,181,-527
2,156318,106,183,-2466,-1020,-572,-331,199,181,-527
2,156324,106,183,-2466,-1020,-572,-331,199,181,-527
2,156329,109,183,-2462,-1019,-575,-326,196,184,-520
2,156335,109,183,-2462,-1019,-575,-326,196,184,-520
2,156341,109,183,-2462,-1019,-575,-326,196,184,-520
2,156346,108,183,-2458,-1026,-576,-321,196,184,-520
2,156351,108,183,-2458,-1026,-576,-321,196,184,-520
2,156357,108,183,-2458,-1026,-576,-321,196,184,-520
2,156362,108,183,-2458,-1026,-576,-321,196,184,-520
2,156367,106,183,-2460,-1025,-574,-325,196,184,-520
2,156372,106,183,-2460,-1025,-574,-325,196,184,-520
2,156379,106,183,-2460,-1025,-574,-325,196,184,-520
2,156384,106,183,-2460,-1025,-574,-325,196,184,-520
2,156390,105,183,-2462,-1022,-580,-328,196,184,-520
2,156395,105,183,-2462,-1022,-580,-328,196,184,-520
2,156401,105,183,-2462,-1022,-580,-328,196,184,-520
2,156406,107,184,-2464,-1028,-579,-328,196,184,-520
2,156412,107,184,-2464,-1028,-579,-328,196,184,-520
2,156418,107,184,-2464,-1028,-579,-328,196,184,-520
2,156424,107,184,-2464,-1028,-579,-328,196,184,-520
2,156430,108,188,-2467,-1034,-574,-331,196,184,-520
2,156435,108,188,-2467,-1034,-574,-331,196,184,-520
2,156440,108,188,-2467,-1034,-574,-331,196,184,-520
2,156445,107,185,-2457,-1034,-577,-329,196,184,-520
2,156450,107,185,-2457,-1034,-577,-329,194,192,-528
2,156456,107,185,-2457,-1034,-577,-329,194,192,-528
2,156462,107,185,-2457,-1034,-577,-329,194,192,-528
2,156468,105,184,-2460,-1028,-574,-327,194,192,-528
2,156473,105,184,-2460,-1028,-574,-327,194,192,-528
2,156478,105,184,-2460,-1028,-574,-327,194,192,-528
2,156484,105,184,-2460,-1028,-574,-327,194,192,-528
2,156489,107,182,-2460,-1029,-579,-330,194,192,-528
2,156495,107,182,-2460,-1029,-579,-330,194,192,-528
2,156500,107,182,-2460,-1029,-579,-330,194,192,-528
2,156507,108,186,-2465,-1028,-578,-328,194,192,-528
2,156513,108,186,-2465,-1028,-578,-328,194,192,-528
2,156518,108,186,-2465,-1028,-578,-328,194,192,-528
2,156523,108,186,-2465,-1028,-578,-328,194,192,-528
2,156530,106,184,-2464,-1026,-577,-325,194,192,-528
2,156535,106,184,-2464,-1026,-577,-325,194,192,-528
2,156541,106,184,-2464,-1026,-577,-325,194,192,-528
2,156547,110,184,-2466,-1023,-580,-324,194,192,-528
2,156553,110,184,-2466,-1023,-580,-324,194,192,-528
2,156557,110,184,-2466,-1023,-580,-324,194,192,-528
2,156563,110,184,-2466,-1023,-580,-324,194,192,-528
2,156568,107,184,-2465,-1023,-578,-325,194,192,-528
2,156574,107,184,-2465,-1023,-578,-325,194,192,-528
2,156579,107,184,-2465,-1023,-578,-325,194,192,-528
2,156585,107,184,-2465,-1023,-578,-325,194,192,-528
2,156591,110,184,-2460,-1025,-585,-324,194,190,-520
2,156596,110,184,-2460,-1025,-585,-324,194,190,-520
2,156601,110,184,-2460,-1025,-585,-324,194,190,-520
2,156607,107,181,-2465,-1014,-584,-322,194,190,-520
2,156613,107,181,-2465,-1014,-584,-322,194,190,-520
2,156618,107,181,-2465,-1014,-584,-322,194,190,-520
2,156623,107,181,-2465,-1014,-584,-322,194,190,-520
2,156630,104,184,-2465,-1014,-578,-330,194,190,-520
2,156634,104,184,-2465,-1014,-578,-330,194,190,-520
2,156640,104,184,-2465,-1014,-578,-330,194,190,-520
2,156645,104,184,-2465,-1014,-578,-330,194,190,-520
2,156651,108,183,-2464,-1021,-571,-327,194,190,-520
2,156656,108,183,-2464,-1021,-571,-327,194,190,-520
2,156662,108,183,-2464,-1021,-571,-327,194,190,-520
2,156667,104,185,-2466,-1020,-572,-326,194,190,-520
2,156673,104,185,-2466,-1020,-572,-326,194,190,-520
2,156679,104,185,-2466,-1020,-572,-326,194,190,-520
2,156684,104,185,-2466,-1020,-572,-326,194,190,-520
2,156690,105,185,-2463,-1023,-570,-331,194,190,-520
2,156696,105,185,-2463,-1023,-570,-331,194,190,-520
2,156701,105,185,-2463,-1023,-570,-331,194,190,-520
2,156706,104,182,-2465,-1022,-575,-329,193,187,-527
2,156712,104,182,-2465,-1022,-575,-329,193,187,-527
2,156717,104,182,-2465,-1022,-575,-329,193,187,-527
2,156723,104,182,-2465,-1022,-575,-329,193,187,-527
2,156728,106,182,-2468,-1026,-577,-326,193,187,-527
2,156733,106,182,-2468,-1026,-577,-326,193,187,-527
2,156739,106,182,-2468,-1026,-577,-326,193,187,-527
2,156744,106,182,-2468,-1026,-577,-326,193,187,-527
2,156750,106,186,-2465,-1030,-575,-328,193,187,-527
2,156755,106,186,-2465,-1030,-575,-328,193,187,-527
2,156761,106,186,-2465,-1030,-575,-328,193,187,-527
2,156766,107,184,-2460,-1026,-576,-331,193,187,-527
2,156772,107,184,-2460,-1026,-576,-331,193,187,-527
2,156777,107,184,-2460,-1026,-576,-331,193,187,-527
2,156783,107,184,-2460,-1026,-576,-331,193,187,-527
2,156787,109,183,-2461,-1028,-574,-325,193,187,-527
2,156793,109,183,-2461,-1028,-574,-325,193,187,-527
2,156798,109,183,-2461,-1028,-574,-325,193,187,-527
2,156805,109,183,-2461,-1028,-574,-325,193,187,-527
2,156810,107,182,-2463,-1026,-573,-330,193,187,-527
2,156816,107,182,-2463,-1026,-573,-330,193,187,-527
2,156821,107,182,-2463,-1026,-573,-330,193,187,-527
2,156826,106,181,-2463,-1034,-579,-326,194,192,-526
2,156831,106,181,-2463,-1034,-579,-326,194,192,-526
2,156837,106,181,-2463,-1034,-579,-326,194,192,-526
2,156843,106,181,-2463,-1034,-579,-326,194,192,-526
2,156849,108,186,-2458,-1022,-582,-330,194,192,-526
2,156854,108,186,-2458,-1022,-582,-330,194,192,-526
2,156860,108,186,-2458,-1022,-582,-330,194,192,-526
2,156865,108,186,-2458,-1022,-582,-330,194,192,-526
2,156870,106,187,-2460,-1024,-576,-327,194,192,-526
2,156876,106,187,-2460,-1024,-576,-327,194,192,-526
2,156881,106,187,-2460,-1024,-576,-327,194,192,-526
2,156888,111,183,-2470,-1019,-574,-327,194,192,-526
2,156893,111,183,-2470,-1019,-574,-327,194,192,-526
2,156898,111,183,-2470,-1019,-574,-327,194,192,-526
2,156904,111,183,-2470,-1019,-574,-327,194,192,-526
2,156909,107,182,-2469,-1020,-569,-325,194,192,-526
2,156914,107,182,-2469,-1020,-569,-325,194,192,-526
2,156920,107,182,-2469,-1020,-569,-325,194,192,-526
2,156925,107,182,-2469,-1020,-569,-325,194,192,-526
2,156932,107,184,-2467,-1029,-571,-328,194,192,-526
2,156937,107,184,-2467,-1029,-571,-328,194,192,-526
2,156942,107,184,-2467,-1029,-571,-328,194,192,-526
2,156948,105,185,-2470,-1028,-575,-327,194,192,-526
2,156953,105,185,-2470,-1028,-575,-327,194,192,-526
2,156958,105,185,-2470,-1028,-575,-327,194,192,-526
2,156964,105,185,-2470,-1028,-575,-327,194,192,-526
2,156969,106,181,-2462,-1023,-574,-322,197,187,-525
2,156976,106,181,-2462,-1023,-574,-322,197,187,-525
2,156981,106,181,-2462,-1023,-574,-322,197,187,-525
2,156986,107,185,-2466,-1019,-572,-325,197,187,-525
2,156992,107,185,-2466,-1019,-572,-325,197,187,-525
2,156997,107,185,-2466,-1019,-572,-325,197,187,-525
2,157002,107,185,-2466,-1019,-572,-325,197,187,-525
2,157007,108,185,-2466,-1023,-574,-324,197,187,-525
2,157014,108,185,-2466,-1023,-574,-324,197,187,-525
2,157020,108,185,-2466,-1023,-574,-324,197,187,-525
2,157025,108,185,-2466,-1023,-574,-324,197,187,-525
2,157030,109,183,-2465,-1022,-576,-327,197,187,-525
2,157036,109,183,-2465,-1022,-576,-327,197,187,-525
2,157042,109,183,-2465,-1022,-576,-327,197,187,-525
2,157047,110,184,-2469,-1018,-581,-321,197,187,-525
2,157052,110,184,-2469,-1018,-581,-321,197,187,-525
2,157059,110,184,-2469,-1018,-581,-321,197,187,-525
2,157064,110,184,-2469,-1018,-581,-321,197,187,-525
2,157070,106,182,-2468,-1026,-578,-330,197,187,-525
2,157075,106,182,-2468,-1026,-578,-330,197,187,-525
2,157080,106,182,-2468,-1026,-578,-330,197,187,-525
2,157086,106,182,-2468,-1026,-578,-330,197,187,-525
2,157091,109,184,-2463,-1021,-566,-328,197,189,-527
2,157097,109,184,-2463,-1021,-566,-328,197,189,-527
2,157103,109,184,-2463,-1021,-566,-328,197,189,-527
2,157109,105,184,-2463,-1025,-583,-325,197,189,-527
2,157115,105,184,-2463,-1025,-583,-325,197,189,-527
2,157120,105,184,-2463,-1025,-583,-325,197,189,-527
2,157125,105,184,-2463,-1025,-583,-325,197,189,-527
2,157130,109,185,-2460,-1033,-574,-334,197,189,-527
2,157135,109,185,-2460,-1033,-574,-334,197,189,-527
2,157142,109,185,-2460,-1033,-574,-334,197,189,-527
2,157147,106,185,-2462,-1030,-581,-331,197,189,-527
2,157153,106,185,-2462,-1030,-581,-331,197,189,-527
2,157159,106,185,-2462,-1030,-581,-331,197,189,-527
2,157164,106,185,-2462,-1030,-581,-331,197,189,-527
2,157169,109,184,-2468,-1028,-586,-325,197,189,-527
2,157174,109,184,-2468,-1028,-586,-325,197,189,-527
2,157180,109,184,-2468,-1028,-586,-325,197,189,-527
2,157186,109,184,-2468,-1028,-586,-325,197,189,-527
2,157192,105,184,-2465,-1026,-583,-326,197,189,-527
2,157197,105,184,-2465,-1026,-583,-326,197,189,-527
2,157203,105,184,-2465,-1026,-583,-326,197,189,-527
2,157208,109,184,-2471,-1028,-584,-327,197,189,-527
2,157213,109,184,-2471,-1028,-584,-327,197,189,-527
2,157219,109,184,-2471,-1028,-584,-327,197,189,-527
2,157224,109,184,-2471,-1028,-584,-327,197,189,-527
2,157231,108,187,-2466,-1025,-582,-327,203,191,-523
2,157236,108,187,-2466,-1025,-582,-327,203,191,-523
2,157241,108,187,-2466,-1025,-582,-327,203,191,-523
2,157246,108,187,-2466,-1025,-582,-327,203,191,-523
2,157251,107,183,-2468,-1022,-579,-332,203,191,-523
2,157257,107,183,-2468,-1022,-579,-332,203,191,-523
2,157262,107,183,-2468,-1022,-579,-332,203,191,-523
2,157268,108,185,-2462,-1025,-583,-325,203,191,-523
2,157274,108,185,-2462,-1025,-583,-325,203,191,-523
2,157279,108,185,-2462,-1025,-583,-325,203,191,-523
2,157284,108,185,-2462,-1025,-583,-325,203,191,-523
2,157290,107,185,-2467,-1025,-578,-327,203,191,-523
2,157296,107,185,-2467,-1025,-578,-327,203,191,-523
2,157301,107,185,-2467,-1025,-578,-327,203,191,-523
2,157306,107,184,-2463,-1024,-578,-322,203,191,-523
2,157313,107,184,-2463,-1024,-578,-322,203,191,-523
2,157318,107,184,-2463,-1024,-578,-322,203,191,-523
2,157324,107,184,-2463,-1024,-578,-322,203,191,-523
2,157330,111,185,-2470,-1034,-583,-324,203,191,-523
2,157335,111,185,-2470,-1034,-583,-324,203,191,-523
2,157341,111,185,-2470,-1034,-583,-324,203,191,-523
2,157346,111,185,-2470,-1034,-583,-324,203,191,-523
2,157351,108,182,-2459,-1035,-581,-323,202,188,-526
2,157357,108,182,-2459,-1035,-581,-323,202,188,-526
2,157363,108,182,-2459,-1035,-581,-323,202,188,-526
2,157368,109,186,-2467,-1020,-575,-323,202,188,-526
2,157374,109,186,-2467,-1020,-575,-323,202,188,-526
2,157379,109,186,-2467,-1020,-575,-323,202,188,-526
2,157384,109,186,-2467,-1020,-575,-323,202,188,-526
2,157390,111,185,-2467,-1024,-573,-326,202,188,-526
2,157395,111,185,-2467,-1024,-573,-326,202,188,-526
2,157402,111,185,-2467,-1024,-573,-326,202,188,-526
2,157408,105,186,-2461,-1018,-579,-326,202,188,-526
2,157414,105,186,-2461,-1018,-579,-326,202,188,-526
2,157419,105,186,-2461,-1018,-579,-326,202,188,-526
2,157425,105,186,-2461,-1018,-579,-326,202,188,-526
2,157431,106,186,-2469,-1026,-572,-324,202,188,-526
2,157436,106,186,-2469,-1026,-572,-324,202,188,-526
2,157442,106,186,-2469,-1026,-572,-324,202,188,-526
2,157448,109,183,-2471,-1032,-579,-322,202,188,-526
2,157453,109,183,-2471,-1032,-579,-322,202,188,-526
2,157458,109,183,-2471,-1032,-579,-322,202,188,-526
2,157464,109,183,-2471,-1032,-579,-322,202,188,-526
2,157469,103,183,-2457,-1020,-572,-325,205,191,-527
2,157474,103,183,-2457,-1020,-572,-325,205,191,-527
2,157480,103,183,-2457,-1020,-572,-325,205,191,-527
2,157486,103,183,-2457,-1020,-572,-325,205,191,-527
2,157491,105,187,-2459,-1027,-574,-332,205,191,-527
2,157497,105,187,-2459,-1027,-574,-332,205,191,-527
2,157502,105,187,-2459,-1027,-574,-332,205,191,-527
2,157507,105,183,-2468,-1035,-570,-336,205,191,-527
2,157513,105,183,-2468,-1035,-570,-336,205,191,-527
2,157518,105,183,-2468,-1035,-570,-336,205,191,-527
2,157523,105,183,-2468,-1035,-570,-336,205,191,-527
2,157530,106,185,-2463,-1030,-573,-326,205,191,-527
2,157535,106,185,-2463,-1030,-573,-326,205,191,-527
2,157541,106,185,-2463,-1030,-573,-326,205,191,-527
2,157546,106,185,-2463,-1030,-573,-326,205,191,-527
2,157552,103,187,-2468,-1019,-577,-331,205,191,-527
2,157558,103,187,-2468,-1019,-577,-331,205,191,-527
2,157563,103,187,-2468,-1019,-577,-331,205,191,-527
2,157570,107,186,-2462,-1021,-579,-335,205,191,-527
2,157575,107,186,-2462,-1021,-579,-335,205,191,-527
2,157580,107,186,-2462,-1021,-579,-335,205,191,-527
2,157586,107,186,-2462,-1021,-579,-335,205,191,-527
2,157591,106,185,-2467,-1025,-577,-328,205,191,-527
2,157596,106,185,-2467,-1025,-577,-328,205,191,-527
2,157602,106,185,-2467,-1025,-577,-328,205,191,-527
2,157607,110,184,-2464,-1017,-567,-331,201,193,-519
2,157613,110,184,-2464,-1017,-567,-331,201,193,-519
2,157619,110,184,-2464,-1017,-567,-331,201,193,-519
2,157624,110,184,-2464,-1017,-567,-331,201,193,-519
2,157629,107,183,-2468,-1027,-580,-323,201,193,-519
2,157635,107,183,-2468,-1027,-580,-323,201,193,-519
2,157641,107,183,-2468,-1027,-580,-323,201,193,-519
2,157646,107,183,-2468,-1027,-580,-323,201,193,-519
2,157651,105,185,-2464,-1029,-583,-321,201,193,-519
2,157657,105,185,-2464,-1029,-583,-321,201,193,-519
2,157663,105,185,-2464,-1029,-583,-321,201,193,-519
2,157668,109,181,-2463,-1031,-577,-329,201,193,-519
2,157673,109,181,-2463,-1031,-577,-329,201,193,-519
2,157679,109,181,-2463,-1031,-577,-329,201,193,-519
2,157685,109,181,-2463,-1031,-577,-329,201,193,-519
2,157690,111,183,-2473,-1025,-580,-335,201,193,-519
2,157696,111,183,-2473,-1025,-580,-335,201,193,-519
2,157701,111,183,-2473,-1025,-580,-335,201,193,-519
2,157707,111,183,-2473,-1025,-580,-335,201,193,-519
2,157712,108,182,-2469,-1025,-579,-336,201,193,-519
2,157718,108,182,-2469,-1025,-579,-336,201,193,-519
2,157724,108,182,-2469,-1025,-579,-336,201,193,-519
2,157729,106,183,-2466,-1022,-579,-329,198,194,-538
2,157734,106,183,-2466,-1022,-579,-329,198,194,-538
2,157740,106,183,-2466,-1022,-579,-329,198,194,-538
2,157745,106,183,-2466,-1022,-579,-329,198,194,-538
2,157751,106,186,-2464,-1025,-582,-326,198,194,-538
2,157756,106,186,-2464,-1025,-582,-326,198,194,-538
2,157762,106,186,-2464,-1025,-582,-326,198,194,-538
2,157767,107,184,-2461,-1025,-574,-327,198,194,-538
2,157773,107,184,-2461,-1025,-574,-327,198,194,-538
2,157778,107,184,-2461,-1025,-574,-327,198,194,-538
2,157785,107,184,-2461,-1025,-574,-327,198,194,-538
2,157790,111,183,-2459,-1027,-574,-331,198,194,-538
2,157796,111,183,-2459,-1027,-574,-331,198,194,-538
2,157801,111,183,-2459,-1027,-574,-331,198,194,-538
2,157807,111,183,-2459,-1027,-574,-331,198,194,-538
2,157812,107,185,-2467,-1029,-583,-327,198,194,-538
2,157817,107,185,-2467,-1029,-583,-327,198,194,-538
2,157822,107,185,-2467,-1029,-583,-327,198,194,-538
2,157829,107,184,-2463,-1032,-585,-325,198,194,-538
2,157835,107,184,-2463,-1032,-585,-325,198,194,-538
2,157840,107,184,-2463,-1032,-585,-325,198,194,-538
2,157846,107,184,-2463,-1032,-585,-325,198,194,-538
2,157851,106,184,-2471,-1024,-579,-309,198,194,-538
2,157857,106,184,-2471,-1024,-579,-309,198,194,-538
2,157862,106,184,-2471,-1024,-579,-309,198,194,-538
2,157869,105,186,-2461,-1026,-580,-317,193,195,-535
2,157874,105,186,-2461,-1026,-580,-317,193,195,-535
2,157880,105,186,-2461,-1026,-580,-317,193,195,-535
2,157885,105,186,-2461,-1026,-580,-317,193,195,-535
2,157891,108,184,-2466,-1021,-581,-324,193,195,-535
2,157896,108,184,-2466,-1021,-581,-324,193,195,-535
2,157901,108,184,-2466,-1021,-581,-324,193,195,-535
2,157906,108,184,-2466,-1021,-581,-324,193,195,-535
2,157913,107,185,-2465,-1015,-583,-323,193,195,-535
2,157918,107,185,-2465,-1015,-583,-323,193,195,-535
2,157923,107,185,-2465,-1015,-583,-323,193,195,-535
2,157929,106,183,-2459,-1021,-577,-319,193,195,-535
2,157934,106,183,-2459,-1021,-577,-319,193,195,-535
2,157939,106,183,-2459,-1021,-577,-319,193,195,-535
2,157944,106,183,-2459,-1021,-577,-319,193,195,-535
2,157950,106,186,-2465,-1023,-571,-322,193,195,-535
2,157957,106,186,-2465,-1023,-571,-322,193,195,-535
2,157962,106,186,-2465,-1023,-571,-322,193,195,-535
2,157967,104,184,-2465,-1029,-576,-320,193,195,-535
2,157973,104,184,-2465,-1029,-576,-320,193,195,-535
2,157978,104,184,-2465,-1029,-576,-320,193,195,-535
2,157984,104,184,-2465,-1029,-576,-320,193,195,-535
2,157989,108,185,-2461,-1025,-580,-326,196,196,-522
2,157996,108,185,-2461,-1025,-580,-326,196,196,-522
2,158001,108,185,-2461,-1025,-580,-326,196,196,-522
2,158007,108,185,-2461,-1025,-580,-326,196,196,-522
2,158012,105,185,-2462,-1030,-580,-328,196,196,-522
2,158018,105,185,-2462,-1030,-580,-328,196,196,-522
2,158023,105,185,-2462,-1030,-580,-328,196,196,-522
2,158028,108,184,-2468,-1030,-580,-324,196,196,-522
2,158033,108,184,-2468,-1030,-580,-324,196,196,-522
2,158040,108,184,-2468,-1030,-580,-324,196,196,-522
2,158046,108,184,-2468,-1030,-580,-324,196,196,-522
2,158051,108,185,-2468,-1032,-586,-330,196,196,-522
2,158057,108,185,-2468,-1032,-586,-330,196,196,-522
2,158062,108,185,-2468,-1032,-586,-330,196,196,-522
2,158068,109,183,-2464,-1030,-576,-324,196,196,-522
2,158073,109,183,-2464,-1030,-576,-324,196,196,-522
2,158078,109,183,-2464,-1030,-576,-324,196,196,-522
2,158084,109,183,-2464,-1030,-576,-324,196,196,-522
2,158090,107,183,-2468,-1032,-576,-327,196,196,-522
2,158095,107,183,-2468,-1032,-576,-327,196,196,-522
2,158101,107,183,-2468,-1032,-576,-327,196,196,-522
2,158106,107,183,-2468,-1032,-576,-327,196,196,-522
2,158111,105,185,-2469,-1030,-575,-327,198,190,-518
2,158117,105,185,-2469,-1030,-575,-327,198,190,-518
2,158123,105,185,-2469,-1030,-575,-327,198,190,-518
2,158128,107,186,-2459,-1039,-576,-334,198,190,-518
2,158134,107,186,-2459,-1039,-576,-334,198,190,-518
2,158139,107,186,-2459,-1039,-576,-334,198,190,-518
2,158145,107,186,-2459,-1039,-576,-334,198,190,-518
2,158150,106,184,-2458,-1029,-568,-333,198,190,-518
2,158155,106,184,-2458,-1029,-568,-333,198,190,-518
2,158161,106,184,-2458,-1029,-568,-333,198,190,-518
2,158167,106,184,-2458,-1029,-568,-333,198,190,-518
2,158172,106,184,-2466,-1029,-572,-324,198,190,-518
2,158178,106,184,-2466,-1029,-572,-324,198,190,-518
2,158183,106,184,-2466,-1029,-572,-324,198,190,-518
2,158188,104,183,-2465,-1022,-581,-323,198,190,-518
2,158194,104,183,-2465,-1022,-581,-323,198,190,-518
2,158199,104,183,-2465,-1022,-581,-323,198,190,-518
2,158205,104,183,-2465,-1022,-581,-323,198,190,-518
2,158211,105,184,-2463,-1028,-582,-324,198,190,-518
2,158217,105,184,-2463,-1028,-582,-324,198,190,-518
2,158223,105,184,-2463,-1028,-582,-324,198,190,-518
2,158228,104,183,-2464,-1026,-569,-324,198,190,-518
2,158234,104,183,-2464,-1026,-569,-324,198,190,-518
2,158239,104,183,-2464,-1026,-569,-324,198,190,-518
2,158245,104,183,-2464,-1026,-569,-324,198,190,-518
2,158252,105,187,-2459,-1025,-575,-318,199,187,-525
2,158257,105,187,-2459,-1025,-575,-318,199,187,-525
2,158263,105,187,-2459,-1025,-575,-318,199,187,-525
2,158268,106,183,-2467,-1028,-581,-322,199,187,-525
2,158273,106,183,-2467,-1028,-581,-322,199,187,-525
2,158278,106,183,-2467,-1028,-581,-322,199,187,-525
2,158284,106,183,-2467,-1028,-581,-322,199,187,-525
2,158289,106,186,-2461,-1034,-572,-331,199,187,-525
2,158295,106,186,-2461,-1034,-572,-331,199,187,-525
2,158301,106,186,-2461,-1034,-572,-331,199,187,-525
2,158307,106,186,-2461,-1034,-572,-331,199,187,-525
2,158312,105,184,-2469,-1021,-577,-327,199,187,-525
2,158317,105,184,-2469,-1021,-577,-327,199,187,-525
2,158323,105,184,-2469,-1021,-577,-327,199,187,-525
2,158328,110,186,-2463,-1026,-578,-330,199,187,-525
2,158334,110,186,-2463,-1026,-578,-330,199,187,-525
2,158340,110,186,-2463,-1026,-578,-330,199,187,-525
2,158345,110,186,-2463,-1026,-578,-330,199,187,-525
2,158351,110,185,-2464,-1028,-575,-323,199,187,-525
2,158356,110,185,-2464,-1028,-575,-323,199,187,-525
2,158362,110,185,-2464,-1028,-575,-323,199,187,-525
2,158368,109,184,-2462,-1018,-577,-326,199,187,-525
2,158373,109,184,-2462,-1018,-577,-326,190,188,-524
2,158379,109,184,-2462,-1018,-577,-326,190,188,-524
2,158384,109,184,-2462,-1018,-577,-326,190,188,-524
2,158389,105,185,-2464,-1019,-581,-325,190,188,-524
2,158394,105,185,-2464,-1019,-581,-325,190,188,-524
2,158400,105,185,-2464,-1019,-581,-325,190,188,-524
2,158405,105,185,-2464,-1019,-581,-325,190,188,-524
2,158411,107,185,-2459,-1020,-580,-327,190,188,-524
2,158416,107,185,-2459,-1020,-580,-327,190,188,-524
2,158422,107,185,-2459,-1020,-580,-327,190,188,-524
2,158427,107,185,-2459,-1020,-580,-327,190,188,-524
2,158432,105,182,-2464,-1030,-583,-322,190,188,-524
2,158437,105,182,-2464,-1030,-583,-322,190,188,-524
2,158443,105,182,-2464,-1030,-583,-322,190,188,-524
2,158448,105,181,-2463,-1026,-578,-328,190,188,-524
2,158454,105,181,-2463,-1026,-578,-328,190,188,-524
2,158459,105,181,-2463,-1026,-578,-328,190,188,-524
2,158465,105,181,-2463,-1026,-578,-328,190,188,-524
2,158471,108,183,-2461,-1027,-578,-324,190,188,-524
2,158476,108,183,-2461,-1027,-578,-324,190,188,-524
2,158482,108,183,-2461,-1027,-578,-324,190,188,-524
2,158487,108,183,-2461,-1027,-578,-324,190,188,-524
2,158493,107,185,-2467,-1040,-585,-320,190,188,-524
2,158498,107,185,-2467,-1040,-585,-320,190,188,-524
2,158504,107,185,-2467,-1040,-585,-320,190,188,-524
2,158510,107,187,-2462,-1028,-576,-326,192,192,-524
2,158515,107,187,-2462,-1028,-576,-326,192,192,-524
2,158520,107,187,-2462,-1028,-576,-326,192,192,-524
2,158526,107,187,-2462,-1028,-576,-326,192,192,-524
2,158531,106,182,-2456,-1028,-575,-325,192,192,-524
2,158536,106,182,-2456,-1028,-575,-325,192,192,-524
2,158542,106,182,-2456,-1028,-575,-325,192,192,-524
2,158548,105,183,-2466,-1024,-579,-326,192,192,-524
2,158554,105,183,-2466,-1024,-579,-326,192,192,-524
2,158560,105,183,-2466,-1024,-579,-326,192,192,-524
2,158565,105,183,-2466,-1024,-579,-326,192,192,-524
2,158570,106,184,-2464,-1031,-585,-330,192,192,-524
2,158576,106,184,-2464,-1031,-585,-330,192,192,-524
2,158581,106,184,-2464,-1031,-585,-330,192,192,-524
2,158587,106,184,-2464,-1031,-585,-330,192,192,-524
2,158593,108,187,-2468,-1029,-584,-330,192,192,-524
2,158598,108,187,-2468,-1029,-584,-330,192,192,-524
2,158604,108,187,-2468,-1029,-584,-330,192,192,-524
2,158609,111,185,-2466,-1020,-577,-330,192,192,-524
2,158614,111,185,-2466,-1020,-577,-330,192,192,-524
2,158620,111,185,-2466,-1020,-577,-330,192,192,-524
2,158626,111,185,-2466,-1020,-577,-330,192,192,-524
2,158631,106,187,-2464,-1019,-583,-327,194,194,-526
2,158638,106,187,-2464,-1019,-583,-327,194,194,-526
2,158643,106,187,-2464,-1019,-583,-327,194,194,-526
2,158649,104,183,-2463,-1019,-578,-322,194,194,-526
2,158654,104,183,-2463,-1019,-578,-322,194,194,-526
2,158659,104,183,-2463,-1019,-578,-322,194,194,-526
2,158664,104,183,-2463,-1019,-578,-322,194,194,-526
2,158670,105,186,-2464,-1039,-579,-317,194,194,-526
2,158675,105,186,-2464,-1039,-579,-317,194,194,-526
2,158682,105,186,-2464,-1039,-579,-317,194,194,-526
2,158687,105,186,-2464,-1039,-579,-317,194,194,-526
2,158693,105,186,-2469,-1030,-579,-322,194,194,-526
2,158698,105,186,-2469,-1030,-579,-322,194,194,-526
2,158704,105,186,-2469,-1030,-579,-322,194,194,-526
2,158709,106,182,-2467,-1033,-584,-325,194,194,-526
2,158715,106,182,-2467,-1033,-584,-325,194,194,-526
2,158721,106,182,-2467,-1033,-584,-325,194,194,-526
2,158726,106,182,-2467,-1033,-584,-325,194,194,-526
2,158731,107,187,-2462,-1025,-584,-325,194,194,-526
2,158737,107,187,-2462,-1025,-584,-325,194,194,-526
2,158742,107,187,-2462,-1025,-584,-325,194,194,-526
2,158747,107,187,-2462,-1025,-584,-325,194,194,-526
2,158752,109,183,-2467,-1027,-581,-325,193,189,-525
2,158758,109,183,-2467,-1027,-581,-325,193,189,-525
2,158764,109,183,-2467,-1027,-581,-325,193,189,-525
2,158769,109,186,-2462,-1023,-573,-323,193,189,-525
2,158775,109,186,-2462,-1023,-573,-323,193,189,-525
2,158780,109,186,-2462,-1023,-573,-323,193,189,-525
2,158785,109,186,-2462,-1023,-573,-323,193,189,-525
2,158791,110,183,-2463,-1023,-575,-323,193,189,-525
2,158797,110,183,-2463,-1023,-575,-323,193,189,-525
2,158802,110,183,-2463,-1023,-575,-323,193,189,-525
2,158809,106,187,-2462,-1026,-574,-333,193,189,-525
2,158814,106,187,-2462,-1026,-574,-333,193,189,-525
2,158820,106,187,-2462,-1026,-574,-333,193,189,-525
2,158825,106,187,-2462,-1026,-574,-333,193,189,-525
2,158831,106,183,-2463,-1036,-581,-325,193,189,-525
2,158836,106,183,-2463,-1036,-581,-325,193,189,-525
2,158842,106,183,-2463,-1036,-581,-325,193,189,-525
2,158848,106,183,-2463,-1036,-581,-325,193,189,-525
2,158854,106,182,-2468,-1030,-580,-328,193,189,-525
2,158859,106,182,-2468,-1030,-580,-328,193,189,-525
2,158865,106,182,-2468,-1030,-580,-328,193,189,-525
2,158870,105,185,-2465,-1031,-577,-330,193,189,-525
2,158875,105,185,-2465,-1031,-577,-330,193,189,-525
2,158881,105,185,-2465,-1031,-577,-330,193,189,-525
2,158886,105,185,-2465,-1031,-577,-330,193,189,-525
2,158893,109,188,-2464,-1023,-577,-324,204,198,-534
2,158898,109,188,-2464,-1023,-577,-324,204,198,-534
2,158904,109,188,-2464,-1023,-577,-324,204,198,-534
2,158909,106,185,-2468,-1027,-583,-325,204,198,-534
2,158915,106,185,-2468,-1027,-583,-325,204,198,-534
2,158920,106,185,-2468,-1027,-583,-325,204,198,-534
2,158926,106,185,-2468,-1027,-583,-325,204,198,-534
2,158931,107,182,-2464,-1033,-578,-331,204,198,-534
2,158937,107,182,-2464,-1033,-578,-331,204,198,-534
2,158942,107,182,-2464,-1033,-578,-331,204,198,-534
2,158948,107,182,-2464,-1033,-578,-331,204,198,-534
2,158952,107,185,-2464,-1028,-577,-327,204,198,-534
2,158958,107,185,-2464,-1028,-577,-327,204,198,-534
2,158963,107,185,-2464,-1028,-577,-327,204,198,-534
2,158969,107,185,-2470,-1024,-580,-325,204,198,-534
2,158974,107,185,-2470,-1024,-580,-325,204,198,-534
2,158981,107,185,-2470,-1024,-580,-325,204,198,-534
2,158986,107,185,-2470,-1024,-580,-325,204,198,-534
2,158991,108,183,-2464,-1028,-576,-332,204,198,-534
2,158996,108,183,-2464,-1028,-576,-332,204,198,-534
2,159001,108,183,-2464,-1028,-576,-332,204,198,-534
2,159007,108,183,-2464,-1028,-576,-332,204,198,-534
2,159012,107,184,-2462,-1034,-574,-324,202,190,-520
2,159017,107,184,-2462,-1034,-574,-324,202,190,-520
2,159023,107,184,-2462,-1034,-574,-324,202,190,-520
2,159029,108,184,-2458,-1028,-576,-322,202,190,-520
2,159034,108,184,-2458,-1028,-576,-322,202,190,-520
2,159040,108,184,-2458,-1028,-576,-322,202,190,-520
2,159045,108,184,-2458,-1028,-576,-322,202,190,-520
2,159050,107,185,-2460,-1028,-578,-325,202,190,-520
2,159055,107,185,-2460,-1028,-578,-325,202,190,-520
2,159062,107,185,-2460,-1028,-578,-325,202,190,-520
2,159068,107,185,-2460,-1028,-578,-325,202,190,-520
2,159073,106,185,-2465,-1034,-583,-326,202,190,-520
2,159079,106,185,-2465,-1034,-583,-326,202,190,-520
2,159084,106,185,-2465,-1034,-583,-326,202,190,-520
2,159090,110,184,-2465,-1023,-583,-328,202,190,-520
2,159095,110,184,-2465,-1023,-583,-328,202,190,-520
2,159100,110,184,-2465,-1023,-583,-328,202,190,-520
2,159106,110,184,-2465,-1023,-583,-328,202,190,-520
2,159112,107,185,-2464,-1035,-579,-332,202,190,-520
2,159117,107,185,-2464,-1035,-579,-332,202,190,-520
2,159123,107,185,-2464,-1035,-579,-332,202,190,-520
2,159128,107,185,-2464,-1035,-579,-332,202,190,-520
2,159134,109,185,-2466,-1033,-576,-330,202,190,-520
2,159139,109,185,-2466,-1033,-576,-330,202,190,-520
2,159145,109,185,-2466,-1033,-576,-330,202,190,-520
2,159151,106,185,-2459,-1021,-581,-326,200,188,-524
2,159156,106,185,-2459,-1021,-581,-326,200,188,-524
2,159161,106,185,-2459,-1021,-581,-326,200,188,-524
2,159167,106,185,-2459,-1021,-581,-326,200,188,-524
2,159172,109,181,-2466,-1020,-579,-327,200,188,-524
2,159178,109,181,-2466,-1020,-579,-327,200,188,-524
2,159183,109,181,-2466,-1020,-579,-327,200,188,-524
2,159188,109,181,-2466,-1020,-579,-327,200,188,-524
2,159195,107,184,-2460,-1022,-583,-325,200,188,-524
2,159202,107,184,-2460,-1022,-583,-325,200,188,-524
2,159207,107,184,-2460,-1022,-583,-325,200,188,-524
2,159213,107,185,-2464,-1027,-578,-319,200,188,-524
2,159218,107,185,-2464,-1027,-578,-319,200,188,-524
2,159223,107,185,-2464,-1027,-578,-319,200,188,-524
2,159229,103,183,-2468,-1026,-578,-322,200,188,-524
2,159235,103,183,-2468,-1026,-578,-322,200,188,-524
2,159240,103,183,-2468,-1026,-578,-322,200,188,-524
2,159246,103,183,-2468,-1026,-578,-322,200,188,-524
2,159251,108,186,-2469,-1024,-578,-327,200,188,-524
2,159256,108,186,-2469,-1024,-578,-327,200,188,-524
2,159262,108,186,-2469,-1024,-578,-327,200,188,-524
2,159267,108,186,-2469,-1024,-578,-327,200,188,-524
2,159272,107,182,-2464,-1031,-574,-336,203,191,-529
2,159279,107,182,-2464,-1031,-574,-336,203,191,-529
2,159284,107,182,-2464,-1031,-574,-336,203,191,-529
2,159290,107,186,-2465,-1027,-574,-331,203,191,-529
2,159295,107,186,-2465,-1027,-574,-331,203,191,-529
2,159300,107,186,-2465,-1027,-574,-331,203,191,-529
2,159306,107,186,-2465,-1027,-574,-331,203,191,-529
2,159311,110,185,-2464,-1024,-573,-328,203,191,-529
2,159316,110,185,-2464,-1024,-573,-328,203,191,-529
2,159323,110,185,-2464,-1024,-573,-328,203,191,-529
2,159328,110,185,-2464,-1024,-573,-328,203,191,-529
2,159334,105,186,-2466,-1026,-578,-335,203,191,-529
2,159338,105,186,-2466,-1026,-578,-335,203,191,-529
2,159344,105,186,-2466,-1026,-578,-335,203,191,-529
2,159349,107,183,-2462,-1023,-578,-332,203,191,-529
2,159355,107,183,-2462,-1023,-578,-332,203,191,-529
2,159361,107,183,-2462,-1023,-578,-332,203,191,-529
2,159367,107,183,-2462,-1023,-578,-332,203,191,-529
2,159372,106,182,-2465,-1037,-585,-327,203,191,-529
2,159378,106,182,-2465,-1037,-585,-327,203,191,-529
2,159383,106,182,-2465,-1037,-585,-327,203,191,-529
2,159389,106,182,-2465,-1037,-585,-327,203,191,-529
2,159394,108,180,-2468,-1022,-585,-327,200,180,-528
2,159400,108,180,-2468,-1022,-585,-327,200,180,-528
2,159406,108,180,-2468,-1022,-585,-327,200,180,-528
2,159412,107,186,-2465,-1022,-576,-328,200,180,-528
2,159420,107,186,-2465,-1022,-576,-328,200,180,-528
2,159425,107,186,-2465,-1022,-576,-328,200,180,-528
2,159430,107,186,-2460,-1027,-576,-332,200,180,-528
2,159436,107,186,-2460,-1027,-576,-332,200,180,-528
2,159441,107,186,-2460,-1027,-576,-332,200,180,-528
2,159448,107,186,-2460,-1027,-576,-332,200,180,-528
2,159453,106,185,-2462,-1025,-576,-327,200,180,-528
2,159459,106,185,-2462,-1025,-576,-327,200,180,-528
2,159464,106,185,-2462,-1025,-576,-327,200,180,-528
2,159469,110,185,-2464,-1023,-580,-327,200,180,-528
2,159474,110,185,-2464,-1023,-580,-327,200,180,-528
2,159480,110,185,-2464,-1023,-580,-327,200,180,-528
2,159485,110,185,-2464,-1023,-580,-327,200,180,-528
2,159491,106,184,-2462,-1030,-580,-327,200,180,-528
2,159497,106,184,-2462,-1030,-580,-327,200,180,-528
2,159502,106,184,-2462,-1030,-580,-327,200,180,-528
2,159507,106,184,-2462,-1030,-580,-327,200,180,-528
2,159512,107,185,-2471,-1025,-580,-329,200,180,-528
2,159518,107,185,-2471,-1025,-580,-329,200,180,-528
2,159523,107,185,-2471,-1025,-580,-329,200,180,-528
2,159529,105,183,-2466,-1026,-573,-337,200,180,-528
2,159535,105,183,-2466,-1026,-573,-337,201,191,-521
2,159540,105,183,-2466,-1026,-573,-337,201,191,-521
2,159545,105,183,-2466,-1026,-573,-337,201,191,-521
2,159551,107,182,-2465,-1021,-578,-332,201,191,-521
2,159556,107,182,-2465,-1021,-578,-332,201,191,-521
2,159562,107,182,-2465,-1021,-578,-332,201,191,-521
2,159567,107,182,-2465,-1021,-578,-332,201,191,-521
2,159574,107,182,-2463,-1021,-575,-324,201,191,-521
2,159579,107,182,-2463,-1021,-575,-324,201,191,-521
2,159584,107,182,-2463,-1021,-575,-324,201,191,-521
2,159590,107,183,-2462,-1025,-577,-331,201,191,-521
2,159595,107,183,-2462,-1025,-577,-331,201,191,-521
2,159601,107,183,-2462,-1025,-577,-331,201,191,-521
2,159607,107,183,-2462,-1025,-577,-331,201,191,-521
2,159612,107,183,-2462,-1025,-577,-331,201,191,-521
2,159618,107,183,-2462,-1025,-577,-331,201,191,-521
2,159623,107,183,-2462,-1025,-577,-331,201,191,-521
2,159629,107,183,-2462,-1025,-577,-331,201,191,-521
2,159635,105,185,-2463,-1033,-576,-325,201,191,-521
2,159640,105,185,-2463,-1033,-576,-325,201,191,-521
2,159646,105,185,-2463,-1033,-576,-325,201,191,-521
2,159651,108,184,-2464,-1028,-577,-325,199,191,-523
2,159657,108,184,-2464,-1028,-577,-325,199,191,-523
2,159663,108,184,-2464,-1028,-577,-325,199,191,-523
2,159669,108,184,-2464,-1028,-577,-325,199,191,-523
2,159674,106,185,-2461,-1030,-576,-328,199,191,-523
2,159679,106,185,-2461,-1030,-576,-328,199,191,-523
2,159684,106,185,-2461,-1030,-576,-328,199,191,-523
2,159690,107,183,-2465,-1023,-572,-331,199,191,-523
2,159695,107,183,-2465,-1023,-572,-331,199,191,-523
2,159700,107,183,-2465,-1023,-572,-331,199,191,-523
2,159707,107,183,-2465,-1023,-572,-331,199,191,-523
2,159712,107,185,-2465,-1026,-578,-328,199,191,-523
2,159718,107,185,-2465,-1026,-578,-328,199,191,-523
2,159722,107,185,-2465,-1026,-578,-328,199,191,-523
2,159728,107,185,-2465,-1026,-578,-328,199,191,-523
2,159733,103,185,-2471,-1021,-574,-320,199,191,-523
2,159738,103,185,-2471,-1021,-574,-320,199,191,-523
2,159744,103,185,-2471,-1021,-574,-320,199,191,-523
2,159749,103,185,-2471,-1021,-574,-320,199,191,-523
2,159755,106,184,-2460,-1026,-571,-320,199,191,-523
2,159760,106,184,-2460,-1026,-571,-320,199,191,-523
2,159765,106,184,-2460,-1026,-571,-320,199,191,-523
2,159770,107,184,-2466,-1027,-570,-320,193,193,-525
2,159776,107,184,-2466,-1027,-570,-320,193,193,-525
2,159781,107,184,-2466,-1027,-570,-320,193,193,-525
2,159787,107,184,-2466,-1027,-570,-320,193,193,-525
2,159792,112,182,-2462,-1031,-586,-329,193,193,-525
2,159798,112,182,-2462,-1031,-586,-329,193,193,-525
2,159803,112,182,-2462,-1031,-586,-329,193,193,-525
2,159808,112,182,-2462,-1031,-586,-329,193,193,-525
2,159813,110,184,-2465,-1033,-579,-336,193,193,-525
2,159819,110,184,-2465,-1033,-579,-336,193,193,-525
2,159824,110,184,-2465,-1033,-579,-336,193,193,-525
2,159830,107,185,-2464,-1020,-576,-330,193,193,-525
2,159836,107,185,-2464,-1020,-576,-330,193,193,-525
2,159842,107,185,-2464,-1020,-576,-330,193,193,-525
2,159847,107,185,-2464,-1020,-576,-330,193,193,-525
2,159852,108,186,-2461,-1022,-580,-318,193,193,-525
2,159857,108,186,-2461,-1022,-580,-318,193,193,-525
2,159863,108,186,-2461,-1022,-580,-318,193,193,-525
2,159869,108,186,-2461,-1022,-580,-318,193,193,-525
2,159875,107,187,-2465,-1026,-574,-325,193,193,-525
2,159880,107,187,-2465,-1026,-574,-325,193,193,-525
2,159886,107,187,-2465,-1026,-574,-325,193,193,-525
2,159891,107,184,-2463,-1026,-574,-330,193,193,-525
2,159896,107,184,-2463,-1026,-574,-330,193,193,-525
2,159902,107,184,-2463,-1026,-574,-330,193,193,-525
2,159907,107,184,-2463,-1026,-574,-330,193,193,-525
2,159913,107,185,-2461,-1018,-569,-328,199,189,-525
2,159919,107,185,-2461,-1018,-569,-328,199,189,-525
2,159924,107,185,-2461,-1018,-569,-328,199,189,-525
2,159930,107,185,-2461,-1018,-569,-328,199,189,-525
2,159935,108,185,-2457,-1025,-571,-328,199,189,-525
2,159941,108,185,-2457,-1025,-571,-328,199,189,-525
2,159947,108,185,-2457,-1025,-571,-328,199,189,-525
2,159952,111,184,-2469,-1026,-580,-334,199,189,-525
2,159959,111,184,-2469,-1026,-580,-334,199,189,-525
2,159964,111,184,-2469,-1026,-580,-334,199,189,-525
2,159970,111,184,-2469,-1026,-580,-334,199,189,-525
2,159975,110,185,-2462,-1030,-583,-325,199,189,-525
2,159981,110,185,-2462,-1030,-583,-325,199,189,-525
2,159986,110,185,-2462,-1030,-583,-325,199,189,-525
2,159991,108,182,-2465,-1024,-577,-326,199,189,-525
2,159996,108,182,-2465,-1024,-577,-326,199,189,-525
2,160003,108,182,-2465,-1024,-577,-326,199,189,-525
2,160008,108,182,-2465,-1024,-577,-326,199,189,-525
2,160013,106,185,-2467,-1023,-572,-326,199,189,-525
2,160018,106,185,-2467,-1023,-572,-326,199,189,-525
2,160024,106,185,-2467,-1023,-572,-326,199,189,-525
2,160029,106,185,-2467,-1023,-572,-326,199,189,-525
2,160035,106,184,-2458,-1018,-581,-326,193,193,-519
2,160040,106,184,-2458,-1018,-581,-326,193,193,-519
2,160046,106,184,-2458,-1018,-581,-326,193,193,-519
2,160052,107,182,-2466,-1023,-583,-319,193,193,-519
2,160057,107,182,-2466,-1023,-583,-319,193,193,-519
2,160063,107,182,-2466,-1023,-583,-319,193,193,-519
2,160068,107,182,-2466,-1023,-583,-319,193,193,-519
2,160073,108,183,-2460,-1024,-579,-320,193,193,-519
2,160079,108,183,-2460,-1024,-579,-320,193,193,-519
2,160084,108,183,-2460,-1024,-579,-320,193,193,-519
2,160091,107,186,-2463,-1026,-571,-324,193,193,-519
2,160096,107,186,-2463,-1026,-571,-324,193,193,-519
2,160102,107,186,-2463,-1026,-571,-324,193,193,-519
2,160107,107,186,-2463,-1026,-571,-324,193,193,-519
2,160112,110,185,-2467,-1030,-577,-326,193,193,-519
2,160117,110,185,-2467,-1030,-577,-326,193,193,-519
2,160123,110,185,-2467,-1030,-577,-326,193,193,-519
2,160129,110,185,-2467,-1030,-577,-326,193,193,-519
2,160135,109,183,-2464,-1030,-578,-330,193,193,-519
2,160140,109,183,-2464,-1030,-578,-330,193,193,-519
2,160146,109,183,-2464,-1030,-578,-330,193,193,-519
2,160151,109,188,-2465,-1034,-576,-327,193,193,-519
2,160156,109,188,-2465,-1034,-576,-327,193,193,-519
2,160162,109,188,-2465,-1034,-576,-327,193,193,-519
2,160167,109,188,-2465,-1034,-576,-327,193,193,-519
2,160173,107,182,-2455,-1027,-578,-327,194,180,-526
2,160179,107,182,-2455,-1027,-578,-327,194,180,-526
2,160184,107,182,-2455,-1027,-578,-327,194,180,-526
2,160190,107,182,-2455,-1027,-578,-327,194,180,-526
2,160196,111,183,-2463,-1027,-583,-324,194,180,-526
2,160201,111,183,-2463,-1027,-583,-324,194,180,-526
2,160207,111,183,-2463,-1027,-583,-324,194,180,-526
2,160212,110,184,-2463,-1031,-585,-324,194,180,-526
2,160218,110,184,-2463,-1031,-585,-324,194,180,-526
2,160223,110,184,-2463,-1031,-585,-324,194,180,-526
2,160229,110,184,-2463,-1031,-585,-324,194,180,-526
2,160234,106,183,-2461,-1021,-577,-324,194,180,-526
2,160240,106,183,-2461,-1021,-577,-324,194,180,-526
2,160245,106,183,-2461,-1021,-577,-324,194,180,-526
2,160250,108,181,-2460,-1024,-579,-322,194,180,-526
2,160256,108,181,-2460,-1024,-579,-322,194,180,-526
2,160262,108,181,-2460,-1024,-579,-322,194,180,-526
2,160268,108,181,-2460,-1024,-579,-322,194,180,-526
2,160273,107,184,-2463,-1029,-580,-327,194,180,-526
2,160279,107,184,-2463,-1029,-580,-327,194,180,-526
2,160284,107,184,-2463,-1029,-580,-327,194,180,-526
2,160289,107,184,-2463,-1029,-580,-327,194,180,-526
2,160294,106,182,-2459,-1021,-571,-331,194,186,-526
2,160300,106,182,-2459,-1021,-571,-331,194,186,-526
2,160306,106,182,-2459,-1021,-571,-331,194,186,-526
2,160311,106,182,-2459,-1021,-571,-331,194,186,-526
2,160317,106,182,-2459,-1021,-571,-331,194,186,-526
2,160323,106,182,-2459,-1021,-571,-331,194,186,-526
2,160328,106,182,-2459,-1021,-571,-331,194,186,-526
2,160334,106,182,-2459,-1021,-571,-331,194,186,-526
2,160339,106,182,-2459,-1021,-571,-331,194,186,-526
2,160346,106,182,-2459,-1021,-571,-331,194,186,-526
2,160351,108,184,-2467,-1027,-574,-321,194,186,-526
2,160356,108,184,-2467,-1027,-574,-321,194,186,-526
2,160362,108,184,-2467,-1027,-574,-321,194,186,-526
2,160367,108,184,-2467,-1027,-574,-321,194,186,-526
2,160373,110,182,-2464,-1025,-580,-320,194,186,-526
2,160379,110,182,-2464,-1025,-580,-320,194,186,-526
2,160385,110,182,-2464,-1025,-580,-320,194,186,-526
2,160390,110,182,-2464,-1025,-580,-320,194,186,-526
2,160395,107,185,-2464,-1023,-578,-329,194,186,-526
2,160401,107,185,-2464,-1023,-578,-329,194,186,-526
2,160407,107,185,-2464,-1023,-578,-329,194,186,-526
2,160412,109,183,-2469,-1033,-577,-323,203,187,-519
2,160417,109,183,-2469,-1033,-577,-323,203,187,-519
2,160423,109,183,-2469,-1033,-577,-323,203,187,-519
2,160430,109,183,-2469,-1033,-577,-323,203,187,-519
2,160437,104,185,-2463,-1026,-578,-329,203,187,-519
2,160444,104,185,-2463,-1026,-578,-329,203,187,-519
2,160450,104,185,-2463,-1026,-578,-329,203,187,-519
2,160455,107,185,-2463,-1030,-581,-324,203,187,-519
2,160461,107,185,-2463,-1030,-581,-324,203,187,-519
2,160466,107,185,-2463,-1030,-581,-324,203,187,-519
2,160473,107,185,-2461,-1036,-579,-321,203,187,-519
2,160478,107,185,-2461,-1036,-579,-321,203,187,-519
2,160484,107,185,-2461,-1036,-579,-321,203,187,-519
2,160489,107,185,-2461,-1036,-579,-321,203,187,-519
2,160494,106,184,-2462,-1021,-578,-321,203,187,-519
2,160499,106,184,-2462,-1021,-578,-321,203,187,-519
2,160504,106,184,-2462,-1021,-578,-321,203,187,-519
2,160509,106,184,-2462,-1021,-578,-321,203,187,-519
2,160516,108,181,-2462,-1019,-582,-324,203,187,-519
2,160521,108,181,-2462,-1019,-582,-324,203,187,-519
2,160527,108,181,-2462,-1019,-582,-324,203,187,-519
2,160532,107,180,-2466,-1028,-580,-327,203,187,-519
2,160536,107,180,-2466,-1028,-580,-327,203,187,-519
2,160542,107,180,-2466,-1028,-580,-327,203,187,-519
2,160547,107,180,-2466,-1028,-580,-327,203,187,-519
2,160552,111,183,-2463,-1031,-578,-330,198,186,-520
2,160558,111,183,-2463,-1031,-578,-330,198,186,-520
2,160564,111,183,-2463,-1031,-578,-330,198,186,-520
2,160569,111,183,-2463,-1031,-578,-330,198,186,-520
2,160574,104,183,-2459,-1027,-573,-321,198,186,-520
2,160580,104,183,-2459,-1027,-573,-321,198,186,-520
2,160585,104,183,-2459,-1027,-573,-321,198,186,-520
2,160591,108,184,-2465,-1034,-574,-329,198,186,-520
2,160596,108,184,-2465,-1034,-574,-329,198,186,-520
2,160602,108,184,-2465,-1034,-574,-329,198,186,-520
2,160607,108,184,-2465,-1034,-574,-329,198,186,-520
2,160613,109,181,-2467,-1026,-572,-326,198,186,-520
2,160618,109,181,-2467,-1026,-572,-326,198,186,-520
2,160624,109,181,-2467,-1026,-572,-326,198,186,-520
2,160629,109,181,-2467,-1026,-572,-326,198,186,-520
2,160634,107,183,-2465,-1033,-580,-321,198,186,-520
2,160640,107,183,-2465,-1033,-580,-321,198,186,-520
2,160645,107,183,-2465,-1033,-580,-321,198,186,-520
2,160650,107,183,-2465,-1033,-580,-321,198,186,-520
2,160656,108,186,-2468,-1031,-575,-328,198,186,-520
2,160661,108,186,-2468,-1031,-575,-328,198,186,-520
2,160667,108,186,-2468,-1031,-575,-328,198,186,-520
2,160673,105,185,-2464,-1020,-581,-319,203,191,-521
2,160678,105,185,-2464,-1020,-581,-319,203,191,-521
2,160685,105,185,-2464,-1020,-581,-319,203,191,-521
2,160690,105,185,-2464,-1020,-581,-319,203,191,-521
2,160696,108,183,-2461,-1019,-580,-331,203,191,-521
2,160702,108,183,-2461,-1019,-580,-331,203,191,-521
2,160707,108,183,-2461,-1019,-580,-331,203,191,-521
2,160712,106,183,-2466,-1020,-577,-327,203,191,-521
2,160717,106,183,-2466,-1020,-577,-327,203,191,-521
2,160723,106,183,-2466,-1020,-577,-327,203,191,-521
2,160730,106,183,-2466,-1020,-577,-327,203,191,-521
2,160735,110,182,-2462,-1024,-589,-327,203,191,-521
2,160740,110,182,-2462,-1024,-589,-327,203,191,-521
2,160745,110,182,-2462,-1024,-589,-327,203,191,-521
2,160751,110,182,-2462,-1024,-589,-327,203,191,-521
2,160756,106,181,-2465,-1030,-574,-329,203,191,-521
2,160761,106,181,-2465,-1030,-574,-329,203,191,-521
2,160766,106,181,-2465,-1030,-574,-329,203,191,-521
2,160772,106,186,-2464,-1025,-575,-330,203,191,-521
2,160778,106,186,-2464,-1025,-575,-330,203,191,-521
2,160783,106,186,-2464,-1025,-575,-330,203,191,-521
2,160789,106,186,-2464,-1025,-575,-330,203,191,-521
2,160795,110,183,-2467,-1024,-568,-328,203,191,-521
2,160800,110,183,-2467,-1024,-568,-328,203,191,-521
2,160805,110,183,-2467,-1024,-568,-328,203,191,-521
2,160813,109,187,-2458,-1027,-577,-323,196,198,-522
2,160818,109,187,-2458,-1027,-577,-323,196,198,-522
2,160823,109,187,-2458,-1027,-577,-323,196,198,-522
2,160829,109,187,-2458,-1027,-577,-323,196,198,-522
2,160835,108,187,-2458,-1023,-580,-329,196,198,-522
2,160840,108,187,-2458,-1023,-580,-329,196,198,-522
2,160846,108,187,-2458,-1023,-580,-329,196,198,-522
2,160851,110,183,-2465,-1032,-576,-333,196,198,-522
2,160857,110,183,-2465,-1032,-576,-333,196,198,-522
2,160863,110,183,-2465,-1032,-576,-333,196,198,-522
2,160868,110,183,-2465,-1032,-576,-333,196,198,-522
2,160873,106,184,-2462,-1031,-581,-331,196,198,-522
2,160878,106,184,-2462,-1031,-581,-331,196,198,-522
2,160884,106,184,-2462,-1031,-581,-331,196,198,-522
2,160890,106,184,-2462,-1031,-581,-331,196,198,-522
2,160897,105,186,-2469,-1037,-586,-330,196,198,-522
2,160901,105,186,-2469,-1037,-586,-330,196,198,-522
2,160907,105,186,-2469,-1037,-586,-330,196,198,-522
2,160912,105,186,-2467,-1032,-576,-330,196,198,-522
2,160917,105,186,-2467,-1032,-576,-330,196,198,-522
2,160922,105,186,-2467,-1032,-576,-330,196,198,-522
2,160928,105,186,-2467,-1032,-576,-330,196,198,-522
2,160933,106,183,-2460,-1027,-574,-322,194,186,-526
2,160937,106,183,-2460,-1027,-574,-322,194,186,-526
2,160944,106,183,-2460,-1027,-574,-322,194,186,-526
2,160949,106,183,-2460,-1027,-574,-322,194,186,-526
2,160955,110,182,-2469,-1027,-577,-327,194,186,-526
2,160960,110,182,-2469,-1027,-577,-327,194,186,-526
2,160964,110,182,-2469,-1027,-577,-327,194,186,-526
2,160970,110,182,-2469,-1027,-577,-327,194,186,-526
2,160976,106,183,-2463,-1024,-579,-327,194,186,-526
2,160982,106,183,-2463,-1024,-579,-327,194,186,-526
2,160987,106,183,-2463,-1024,-579,-327,194,186,-526
2,160993,109,186,-2466,-1021,-580,-334,194,186,-526
2,160998,109,186,-2466,-1021,-580,-334,194,186,-526
2,161004,109,186,-2466,-1021,-580,-334,194,186,-526
2,161009,109,186,-2466,-1021,-580,-334,194,186,-526
2,161015,107,184,-2460,-1021,-578,-326,194,186,-526
2,161020,107,184,-2460,-1021,-578,-326,194,186,-526
2,161026,107,184,-2460,-1021,-578,-326,194,186,-526
2,161031,107,184,-2460,-1021,-578,-326,194,186,-526
2,161037,106,185,-2462,-1021,-573,-320,194,186,-526
2,161042,106,185,-2462,-1021,-573,-320,194,186,-526
2,161048,106,185,-2462,-1021,-573,-320,194,186,-526
2,161054,104,185,-2471,-1026,-579,-332,196,192,-518
2,161059,104,185,-2471,-1026,-579,-332,196,192,-518
2,161065,104,185,-2471,-1026,-579,-332,196,192,-518
2,161072,107,183,-2468,-1030,-580,-329,196,192,-518
2,161077,107,183,-2468,-1030,-580,-329,196,192,-518
2,161083,107,183,-2468,-1030,-580,-329,196,192,-518
2,161088,107,183,-2468,-1030,-580,-329,196,192,-518
2,161094,105,182,-2463,-1031,-576,-333,196,192,-518
2,161099,105,182,-2463,-1031,-576,-333,196,192,-518
2,161105,105,182,-2463,-1031,-576,-333,196,192,-518
2,161111,105,182,-2463,-1031,-576,-333,196,192,-518
2,161117,107,181,-2468,-1026,-572,-330,196,192,-518
2,161122,107,181,-2468,-1026,-572,-330,196,192,-518
2,161128,107,181,-2468,-1026,-572,-330,196,192,-518
2,161133,105,183,-2465,-1016,-575,-327,196,192,-518
2,161138,105,183,-2465,-1016,-575,-327,196,192,-518
2,161144,105,183,-2465,-1016,-575,-327,196,192,-518
2,161149,105,183,-2465,-1016,-575,-327,196,192,-518
2,161156,106,183,-2469,-1026,-570,-325,196,192,-518
2,161161,106,183,-2469,-1026,-570,-325,196,192,-518
2,161166,106,183,-2469,-1026,-570,-325,196,192,-518
2,161172,110,185,-2468,-1028,-575,-322,196,192,-518
2,161177,110,185,-2468,-1028,-575,-322,196,192,-518
2,161183,110,185,-2468,-1028,-575,-322,196,192,-518
2,161189,110,185,-2468,-1028,-575,-322,196,192,-518
2,161195,106,183,-2461,-1027,-569,-320,194,182,-520
2,161202,106,183,-2461,-1027,-569,-320,194,182,-520
2,161207,106,183,-2461,-1027,-569,-320,194,182,-520
2,161213,105,186,-2463,-1022,-576,-324,194,182,-520
2,161218,105,186,-2463,-1022,-576,-324,194,182,-520
2,161223,105,186,-2463,-1022,-576,-324,194,182,-520
2,161229,105,186,-2463,-1022,-576,-324,194,182,-520
2,161234,109,182,-2473,-1021,-580,-321,194,182,-520
2,161241,109,182,-2473,-1021,-580,-321,194,182,-520
2,161246,109,182,-2473,-1021,-580,-321,194,182,-520
2,161252,109,182,-2473,-1021,-580,-321,194,182,-520
2,161257,108,185,-2466,-1027,-579,-326,194,182,-520
2,161262,108,185,-2466,-1027,-579,-326,194,182,-520
2,161268,108,185,-2466,-1027,-579,-326,194,182,-520
2,161273,106,183,-2465,-1028,-583,-322,194,182,-520
2,161280,106,183,-2465,-1028,-583,-322,194,182,-520
2,161285,106,183,-2465,-1028,-583,-322,194,182,-520
2,161290,106,183,-2465,-1028,-583,-322,194,182,-520
2,161296,105,183,-2458,-1024,-578,-332,194,182,-520
2,161301,105,183,-2458,-1024,-578,-332,194,182,-520
2,161307,105,183,-2458,-1024,-578,-332,194,182,-520
2,161312,107,183,-2462,-1029,-577,-335,191,191,-523
2,161317,107,183,-2462,-1029,-577,-335,191,191,-523
2,161324,107,183,-2462,-1029,-577,-335,191,191,-523
2,161329,107,183,-2462,-1029,-577,-335,191,191,-523
2,161334,107,184,-2463,-1027,-579,-322,191,191,-523
2,161340,107,184,-2463,-1027,-579,-322,191,191,-523
2,161345,107,184,-2463,-1027,-579,-322,191,191,-523
2,161351,107,184,-2463,-1027,-579,-322,191,191,-523
2,161357,107,186,-2467,-1019,-580,-327,191,191,-523
2,161362,107,186,-2467,-1019,-580,-327,191,191,-523
2,161369,107,186,-2467,-1019,-580,-327,191,191,-523
2,161374,104,186,-2470,-1024,-576,-326,191,191,-523
2,161379,104,186,-2470,-1024,-576,-326,191,191,-523
2,161385,104,186,-2470,-1024,-576,-326,191,191,-523
2,161390,104,186,-2470,-1024,-576,-326,191,191,-523
2,161396,108,186,-2467,-1024,-578,-328,191,191,-523
2,161401,108,186,-2467,-1024,-578,-328,191,191,-523
2,161408,108,186,-2467,-1024,-578,-328,191,191,-523
2,161413,107,187,-2467,-1024,-580,-325,191,191,-523
2,161418,107,187,-2467,-1024,-580,-325,191,191,-523
2,161424,107,187,-2467,-1024,-580,-325,191,191,-523
2,161429,107,187,-2467,-1024,-580,-325,191,191,-523
2,161434,109,181,-2462,-1030,-576,-328,191,191,-523
2,161440,109,181,-2462,-1030,-576,-328,191,191,-523
2,161445,109,181,-2462,-1030,-576,-328,191,191,-523
2,161452,109,181,-2462,-1030,-576,-328,191,191,-523
2,161457,109,183,-2461,-1030,-574,-322,194,186,-524
2,161462,109,183,-2461,-1030,-574,-322,194,186,-524
2,161468,109,183,-2461,-1030,-574,-322,194,186,-524
2,161473,106,184,-2466,-1024,-578,-326,194,186,-524
2,161479,106,184,-2466,-1024,-578,-326,194,186,-524
2,161486,106,184,-2466,-1024,-578,-326,194,186,-524
2,161491,106,184,-2466,-1024,-578,-326,194,186,-524
2,161498,106,183,-2466,-1020,-574,-320,194,186,-524
2,161503,106,183,-2466,-1020,-574,-320,194,186,-524
2,161509,106,183,-2466,-1020,-574,-320,194,186,-524
2,161515,107,185,-2471,-1029,-583,-324,194,186,-524
2,161520,107,185,-2471,-1029,-583,-324,194,186,-524
2,161526,107,185,-2471,-1029,-583,-324,194,186,-524
2,161531,107,185,-2471,-1029,-583,-324,194,186,-524
2,161538,108,186,-2469,-1025,-579,-320,194,186,-524
2,161543,108,186,-2469,-1025,-579,-320,194,186,-524
2,161548,108,186,-2469,-1025,-579,-320,194,186,-524
2,161553,107,184,-2469,-1028,-579,-332,194,186,-524
2,161559,107,184,-2469,-1028,-579,-332,194,186,-524
2,161564,107,184,-2469,-1028,-579,-332,194,186,-524
2,161569,107,184,-2469,-1028,-579,-332,194,186,-524
2,161575,104,183,-2458,-1030,-573,-327,199,179,-525
2,161581,104,183,-2458,-1030,-573,-327,199,179,-525
2,161587,104,183,-2458,-1030,-573,-327,199,179,-525
2,161592,107,185,-2463,-1032,-578,-321,199,179,-525
2,161598,107,185,-2463,-1032,-578,-321,199,179,-525
2,161603,107,185,-2463,-1032,-578,-321,199,179,-525
2,161609,107,185,-2463,-1032,-578,-321,199,179,-525
2,161614,108,185,-2463,-1032,-576,-321,199,179,-525
2,161619,108,185,-2463,-1032,-576,-321,199,179,-525
2,161625,108,185,-2463,-1032,-576,-321,199,179,-525
2,161631,108,185,-2463,-1032,-576,-321,199,179,-525
2,161636,110,185,-2464,-1041,-579,-327,199,179,-525
2,161641,110,185,-2464,-1041,-579,-327,199,179,-525
2,161647,110,185,-2464,-1041,-579,-327,199,179,-525
2,161652,109,185,-2470,-1035,-582,-323,199,179,-525
2,161657,109,185,-2470,-1035,-582,-323,199,179,-525
2,161664,109,185,-2470,-1035,-582,-323,199,179,-525
2,161669,109,185,-2470,-1035,-582,-323,199,179,-525
2,161675,105,187,-2464,-1035,-578,-321,199,179,-525
2,161681,105,187,-2464,-1035,-578,-321,199,179,-525
2,161687,105,187,-2464,-1035,-578,-321,199,179,-525
2,161692,110,186,-2464,-1034,-581,-326,194,184,-524
2,161698,110,186,-2464,-1034,-581,-326,194,184,-524
2,161703,110,186,-2464,-1034,-581,-326,194,184,-524
2,161710,110,186,-2464,-1034,-581,-326,194,184,-524
2,161715,106,186,-2470,-1028,-577,-328,194,184,-524
2,161720,106,186,-2470,-1028,-577,-328,194,184,-524
2,161726,106,186,-2470,-1028,-577,-328,194,184,-524
2,161731,106,186,-2470,-1028,-577,-328,194,184,-524
2,161736,108,184,-2465,-1027,-577,-318,194,184,-524
2,161742,108,184,-2465,-1027,-577,-318,194,184,-524
2,161747,108,184,-2465,-1027,-577,-318,194,184,-524
2,161754,106,184,-2464,-1022,-575,-322,194,184,-524
2,161759,106,184,-2464,-1022,-575,-322,194,184,-524
2,161764,106,184,-2464,-1022,-575,-322,194,184,-524
2,161770,106,184,-2464,-1022,-575,-322,194,184,-524
2,161775,111,183,-2462,-1023,-568,-320,194,184,-524
2,161781,111,183,-2462,-1023,-568,-320,194,184,-524
2,161786,111,183,-2462,-1023,-568,-320,194,184,-524
2,161793,109,183,-2463,-1032,-580,-321,194,184,-524
2,161799,109,183,-2463,-1032,-580,-321,194,184,-524
2,161804,109,183,-2463,-1032,-580,-321,194,184,-524
2,161809,109,183,-2463,-1032,-580,-321,194,184,-524
2,161814,106,185,-2470,-1025,-577,-321,194,184,-524
2,161820,106,185,-2470,-1025,-577,-321,194,184,-524
2,161825,106,185,-2470,-1025,-577,-321,194,184,-524
2,161830,106,185,-2470,-1025,-577,-321,194,184,-524
2,161836,108,184,-2461,-1030,-580,-330,194,182,-520
2,161842,108,184,-2461,-1030,-580,-330,194,182,-520
2,161847,108,184,-2461,-1030,-580,-330,194,182,-520
2,161853,108,182,-2466,-1031,-580,-332,194,182,-520
2,161858,108,182,-2466,-1031,-580,-332,194,182,-520
2,161864,108,182,-2466,-1031,-580,-332,194,182,-520
2,161869,108,182,-2466,-1031,-580,-332,194,182,-520
2,161874,107,181,-2472,-1026,-574,-330,194,182,-520
2,161880,107,181,-2472,-1026,-574,-330,194,182,-520
2,161886,107,181,-2472,-1026,-574,-330,194,182,-520
2,161891,107,181,-2472,-1026,-574,-330,194,182,-520
2,161897,107,182,-2465,-1029,-576,-321,194,182,-520
2,161902,107,182,-2465,-1029,-576,-321,194,182,-520
2,161908,107,182,-2465,-1029,-576,-321,194,182,-520
2,161913,104,186,-2462,-1034,-572,-322,194,182,-520
2,161918,104,186,-2462,-1034,-572,-322,194,182,-520
2,161924,104,186,-2462,-1034,-572,-322,194,182,-520
2,161930,104,186,-2462,-1034,-572,-322,194,182,-520
2,161935,105,184,-2461,-1035,-573,-325,194,182,-520
2,161941,105,184,-2461,-1035,-573,-325,194,182,-520
2,161946,105,184,-2461,-1035,-573,-325,194,182,-520
2,161951,105,184,-2461,-1035,-573,-325,194,182,-520
2,161957,108,184,-2469,-1029,-577,-328,200,184,-524
2,161963,108,184,-2469,-1029,-577,-328,200,184,-524
2,161968,108,184,-2469,-1029,-577,-328,200,184,-524
2,161974,105,185,-2465,-1031,-581,-330,200,184,-524
2,161979,105,185,-2465,-1031,-581,-330,200,184,-524
2,161985,105,185,-2465,-1031,-581,-330,200,184,-524
2,161991,105,185,-2465,-1031,-581,-330,200,184,-524
2,161996,104,186,-2468,-1028,-580,-329,200,184,-524
2,162001,104,186,-2468,-1028,-580,-329,200,184,-524
2,162007,104,186,-2468,-1028,-580,-329,200,184,-524
2,162013,108,185,-2467,-1029,-584,-324,200,184,-524
2,162018,108,185,-2467,-1029,-584,-324,200,184,-524
2,162023,108,185,-2467,-1029,-584,-324,200,184,-524
2,162029,108,185,-2467,-1029,-584,-324,200,184,-524
2,162034,107,183,-2466,-1023,-588,-321,200,184,-524
2,162039,107,183,-2466,-1023,-588,-321,200,184,-524
2,162046,107,183,-2466,-1023,-588,-321,200,184,-524
2,162052,107,183,-2466,-1023,-588,-321,200,184,-524
2,162058,106,184,-2470,-1026,-584,-325,200,184,-524
2,162063,106,184,-2470,-1026,-584,-325,200,184,-524
2,162068,106,184,-2470,-1026,-584,-325,200,184,-524
2,162074,104,186,-2469,-1028,-585,-327,200,184,-524
2,162079,104,186,-2469,-1028,-585,-327,200,184,-524
2,162085,104,186,-2469,-1028,-585,-327,200,184,-524
2,162091,104,186,-2469,-1028,-585,-327,200,184,-524
2,162096,108,182,-2461,-1023,-574,-327,198,188,-526
2,162102,108,182,-2461,-1023,-574,-327,198,188,-526
2,162107,108,182,-2461,-1023,-574,-327,198,188,-526
2,162112,108,182,-2461,-1023,-574,-327,198,188,-526
2,162118,107,187,-2466,-1020,-572,-327,198,188,-526
2,162123,107,187,-2466,-1020,-572,-327,198,188,-526
2,162129,107,187,-2466,-1020,-572,-327,198,188,-526
2,162135,105,182,-2471,-1028,-576,-325,198,188,-526
2,162140,105,182,-2471,-1028,-576,-325,198,188,-526
2,162145,105,182,-2471,-1028,-576,-325,198,188,-526
2,162151,105,182,-2471,-1028,-576,-325,198,188,-526
2,162156,108,183,-2466,-1026,-580,-325,198,188,-526
2,162162,108,183,-2466,-1026,-580,-325,198,188,-526
2,162167,108,183,-2466,-1026,-580,-325,198,188,-526
2,162173,108,185,-2464,-1024,-579,-323,198,188,-526
2,162179,108,185,-2464,-1024,-579,-323,198,188,-526
2,162185,108,185,-2464,-1024,-579,-323,198,188,-526
2,162190,108,185,-2464,-1024,-579,-323,198,188,-526
2,162196,107,186,-2470,-1023,-579,-325,198,188,-526
2,162201,107,186,-2470,-1023,-579,-325,198,188,-526
2,162206,107,186,-2470,-1023,-579,-325,198,188,-526
2,162212,107,186,-2470,-1023,-579,-325,198,188,-526
2,162217,105,184,-2464,-1030,-581,-326,193,189,-523
2,162224,105,184,-2464,-1030,-581,-326,193,189,-523
2,162229,105,184,-2464,-1030,-581,-326,193,189,-523
2,162234,108,184,-2465,-1035,-575,-334,193,189,-523
2,162239,108,184,-2465,-1035,-575,-334,193,189,-523
2,162245,108,184,-2465,-1035,-575,-334,193,189,-523
2,162251,108,184,-2465,-1035,-575,-334,193,189,-523
2,162256,108,184,-2470,-1033,-576,-329,193,189,-523
2,162263,108,184,-2470,-1033,-576,-329,193,189,-523
2,162268,108,184,-2470,-1033,-576,-329,193,189,-523
2,162274,108,184,-2470,-1033,-576,-329,193,189,-523
2,162279,108,184,-2470,-1033,-576,-329,193,189,-523
2,162285,108,184,-2470,-1033,-576,-329,193,189,-523
2,162290,108,184,-2470,-1033,-576,-329,193,189,-523
2,162295,106,184,-2464,-1021,-581,-325,193,189,-523
2,162300,106,184,-2464,-1021,-581,-325,193,189,-523
2,162307,106,184,-2464,-1021,-581,-325,193,189,-523
2,162312,106,184,-2464,-1021,-581,-325,193,189,-523
2,162317,110,184,-2467,-1022,-574,-324,193,189,-523
2,162323,110,184,-2467,-1022,-574,-324,193,189,-523
2,162328,110,184,-2467,-1022,-574,-324,193,189,-523
2,162334,107,184,-2463,-1032,-579,-321,200,190,-526
2,162339,107,184,-2463,-1032,-579,-321,200,190,-526
2,162344,107,184,-2463,-1032,-579,-321,200,190,-526
2,162351,107,184,-2463,-1032,-579,-321,200,190,-526
2,162356,108,183,-2460,-1020,-580,-326,200,190,-526
2,162362,108,183,-2460,-1020,-580,-326,200,190,-526
2,162367,108,183,-2460,-1020,-580,-326,200,190,-526
2,162372,108,183,-2460,-1020,-580,-326,200,190,-526
2,162378,108,184,-2463,-1018,-576,-330,200,190,-526
2,162383,108,184,-2463,-1018,-576,-330,200,190,-526
2,162388,108,184,-2463,-1018,-576,-330,200,190,-526
2,162395,107,188,-2467,-1024,-575,-331,200,190,-526
2,162400,107,188,-2467,-1024,-575,-331,200,190,-526
2,162406,107,188,-2467,-1024,-575,-331,200,190,-526
2,162411,107,188,-2467,-1024,-575,-331,200,190,-526
2,162416,105,183,-2469,-1021,-580,-325,200,190,-526
2,162422,105,183,-2469,-1021,-580,-325,200,190,-526
2,162427,105,183,-2469,-1021,-580,-325,200,190,-526
2,162434,105,184,-2466,-1030,-584,-326,200,190,-526
2,162440,105,184,-2466,-1030,-584,-326,200,190,-526
2,162445,105,184,-2466,-1030,-584,-326,200,190,-526
2,162451,105,184,-2466,-1030,-584,-326,200,190,-526
2,162456,107,182,-2463,-1027,-580,-333,200,190,-526
2,162462,107,182,-2463,-1027,-580,-333,200,190,-526
2,162467,107,182,-2463,-1027,-580,-333,200,190,-526
2,162473,107,182,-2463,-1027,-580,-333,196,188,-530
2,162479,107,182,-2463,-1027,-580,-333,196,188,-530
2,162485,107,182,-2463,-1027,-580,-333,196,188,-530
2,162490,107,182,-2463,-1027,-580,-333,196,188,-530
2,162495,108,184,-2459,-1024,-580,-321,196,188,-530
2,162501,108,184,-2459,-1024,-580,-321,196,188,-530
2,162506,108,184,-2459,-1024,-580,-321,196,188,-530
2,162512,108,184,-2459,-1024,-580,-321,196,188,-530
2,162518,107,188,-2466,-1022,-579,-323,196,188,-530
2,162523,107,188,-2466,-1022,-579,-323,196,188,-530
2,162529,107,188,-2466,-1022,-579,-323,196,188,-530
2,162535,106,184,-2467,-1032,-579,-321,196,188,-530
2,162540,106,184,-2467,-1032,-579,-321,196,188,-530
2,162546,106,184,-2467,-1032,-579,-321,196,188,-530
2,162551,106,184,-2467,-1032,-579,-321,196,188,-530
2,162556,109,186,-2467,-1027,-579,-324,196,188,-530
2,162563,109,186,-2467,-1027,-579,-324,196,188,-530
2,162568,109,186,-2467,-1027,-579,-324,196,188,-530
2,162573,109,186,-2467,-1027,-579,-324,196,188,-530
2,162579,107,184,-2469,-1027,-577,-326,196,188,-530
2,162584,107,184,-2469,-1027,-577,-326,196,188,-530
2,162589,107,184,-2469,-1027,-577,-326,196,188,-530
2,162594,108,185,-2460,-1034,-575,-320,198,188,-526
2,162599,108,185,-2460,-1034,-575,-320,198,188,-526
2,162606,108,185,-2460,-1034,-575,-320,198,188,-526
2,162611,108,185,-2460,-1034,-575,-320,198,188,-526
2,162617,106,183,-2467,-1025,-576,-320,198,188,-526
2,162622,106,183,-2467,-1025,-576,-320,198,188,-526
2,162628,106,183,-2467,-1025,-576,-320,198,188,-526
2,162632,106,183,-2467,-1025,-576,-320,198,188,-526
2,162638,106,183,-2467,-1029,-580,-325,198,188,-526
2,162644,106,183,-2467,-1029,-580,-325,198,188,-526
2,162650,106,183,-2467,-1029,-580,-325,198,188,-526
2,162655,106,186,-2466,-1027,-578,-330,198,188,-526
2,162661,106,186,-2466,-1027,-578,-330,198,188,-526
2,162666,106,186,-2466,-1027,-578,-330,198,188,-526
2,162672,106,186,-2466,-1027,-578,-330,198,188,-526
2,162677,107,184,-2468,-1019,-574,-325,198,188,-526
2,162683,107,184,-2468,-1019,-574,-325,198,188,-526
2,162690,107,184,-2468,-1019,-574,-325,198,188,-526
2,162695,109,185,-2465,-1017,-574,-327,198,188,-526
2,162700,109,185,-2465,-1017,-574,-327,198,188,-526
2,162706,109,185,-2465,-1017,-574,-327,198,188,-526
2,162711,109,185,-2465,-1017,-574,-327,198,188,-526
2,162717,108,181,-2465,-1022,-576,-330,198,188,-526
2,162722,108,181,-2465,-1022,-576,-330,198,188,-526
2,162728,108,181,-2465,-1022,-576,-330,198,188,-526
2,162734,107,184,-2459,-1031,-573,-327,198,188,-526
2,162739,107,184,-2459,-1031,-573,-327,193,187,-519
2,162744,107,184,-2459,-1031,-573,-327,193,187,-519
2,162750,107,184,-2459,-1031,-573,-327,193,187,-519
2,162755,109,182,-2461,-1023,-577,-324,193,187,-519
2,162761,109,182,-2461,-1023,-577,-324,193,187,-519
2,162766,109,182,-2461,-1023,-577,-324,193,187,-519
2,162772,109,182,-2461,-1023,-577,-324,193,187,-519
2,162778,109,185,-2466,-1016,-570,-328,193,187,-519
2,162783,109,185,-2466,-1016,-570,-328,193,187,-519
2,162789,109,185,-2466,-1016,-570,-328,193,187,-519
2,162794,106,188,-2466,-1024,-564,-331,193,187,-519
2,162799,106,188,-2466,-1024,-564,-331,193,187,-519
2,162805,106,188,-2466,-1024,-564,-331,193,187,-519
2,162811,106,188,-2466,-1024,-564,-331,193,187,-519
2,162817,107,183,-2469,-1024,-576,-328,193,187,-519
2,162822,107,183,-2469,-1024,-576,-328,193,187,-519
2,162827,107,183,-2469,-1024,-576,-328,193,187,-519
2,162833,107,183,-2469,-1024,-576,-328,193,187,-519
2,162838,106,185,-2470,-1023,-577,-320,193,187,-519
2,162843,106,185,-2470,-1023,-577,-320,193,187,-519
2,162849,106,185,-2470,-1023,-577,-320,193,187,-519
2,162854,106,182,-2458,-1032,-576,-321,199,187,-527
2,162860,106,182,-2458,-1032,-576,-321,199,187,-527
2,162866,106,182,-2458,-1032,-576,-321,199,187,-527
2,162871,106,182,-2458,-1032,-576,-321,199,187,-527
2,162877,107,185,-2472,-1026,-575,-327,199,187,-527
2,162882,107,185,-2472,-1026,-575,-327,199,187,-527
2,162887,107,185,-2472,-1026,-575,-327,199,187,-527
2,162893,107,185,-2472,-1026,-575,-327,199,187,-527
2,162898,106,185,-2461,-1027,-579,-332,199,187,-527
2,162904,106,185,-2461,-1027,-579,-332,199,187,-527
2,162910,106,185,-2461,-1027,-579,-332,199,187,-527
2,162915,109,188,-2461,-1028,-571,-323,199,187,-527
2,162921,109,188,-2461,-1028,-571,-323,199,187,-527
2,162926,109,188,-2461,-1028,-571,-323,199,187,-527
2,162931,109,188,-2461,-1028,-571,-323,199,187,-527
2,162937,107,181,-2470,-1025,-576,-321,199,187,-527
2,162942,107,181,-2470,-1025,-576,-321,199,187,-527
2,162948,107,181,-2470,-1025,-576,-321,199,187,-527
2,162954,107,181,-2470,-1025,-576,-321,199,187,-527
2,162959,109,186,-2460,-1023,-574,-328,199,187,-527
2,162964,109,186,-2460,-1023,-574,-328,199,187,-527
2,162970,109,186,-2460,-1023,-574,-328,199,187,-527
2,162975,108,182,-2466,-1028,-570,-323,197,193,-527
2,162980,108,182,-2466,-1028,-570,-323,197,193,-527
2,162987,108,182,-2466,-1028,-570,-323,197,193,-527
2,162993,108,182,-2466,-1028,-570,-323,197,193,-527
2,162998,106,186,-2459,-1022,-576,-314,197,193,-527
2,163003,106,186,-2459,-1022,-576,-314,197,193,-527
2,163009,106,186,-2459,-1022,-576,-314,197,193,-527
2,163014,107,184,-2462,-1031,-581,-328,197,193,-527
2,163019,107,184,-2462,-1031,-581,-328,197,193,-527
2,163024,107,184,-2462,-1031,-581,-328,197,193,-527
2,163031,107,184,-2462,-1031,-581,-328,197,193,-527
2,163036,107,182,-2463,-1032,-582,-331,197,193,-527
2,163041,107,182,-2463,-1032,-582,-331,197,193,-527
2,163047,107,182,-2463,-1032,-582,-331,197,193,-527
2,163052,107,182,-2463,-1032,-582,-331,197,193,-527
2,163058,108,186,-2466,-1025,-573,-329,197,193,-527
2,163063,108,186,-2466,-1025,-573,-329,197,193,-527
2,163068,108,186,-2466,-1025,-573,-329,197,193,-527
2,163074,108,186,-2466,-1025,-573,-329,197,193,-527
2,163079,109,184,-2469,-1025,-578,-317,197,193,-527
2,163085,109,184,-2469,-1025,-578,-317,197,193,-527
2,163090,109,184,-2469,-1025,-578,-317,197,193,-527
2,163095,108,186,-2469,-1024,-584,-323,197,193,-527
2,163100,108,186,-2469,-1024,-584,-323,197,193,-527
2,163106,108,186,-2469,-1024,-584,-323,197,193,-527
2,163111,108,186,-2469,-1024,-584,-323,197,193,-527
2,163117,106,183,-2466,-1023,-573,-329,201,189,-523
2,163123,106,183,-2466,-1023,-573,-329,201,189,-523
2,163129,106,183,-2466,-1023,-573,-329,201,189,-523
2,163134,105,184,-2461,-1024,-568,-320,201,189,-523
2,163140,105,184,-2461,-1024,-568,-320,201,189,-523
2,163145,105,184,-2461,-1024,-568,-320,201,189,-523
2,163151,105,184,-2461,-1024,-568,-320,201,189,-523
2,163156,106,186,-2465,-1024,-575,-326,201,189,-523
2,163163,106,186,-2465,-1024,-575,-326,201,189,-523
2,163168,106,186,-2465,-1024,-575,-326,201,189,-523
2,163173,106,186,-2465,-1024,-575,-326,201,189,-523
2,163179,106,185,-2463,-1021,-572,-330,201,189,-523
2,163184,106,185,-2463,-1021,-572,-330,201,189,-523
2,163189,106,185,-2463,-1021,-572,-330,201,189,-523
2,163195,103,184,-2463,-1027,-583,-326,201,189,-523
2,163201,103,184,-2463,-1027,-583,-326,201,189,-523
2,163207,103,184,-2463,-1027,-583,-326,201,189,-523
2,163212,103,184,-2463,-1027,-583,-326,201,189,-523
2,163218,107,184,-2469,-1027,-572,-326,201,189,-523
2,163223,107,184,-2469,-1027,-572,-326,201,189,-523
2,163229,107,184,-2469,-1027,-572,-326,201,189,-523
2,163235,106,180,-2463,-1022,-566,-331,197,185,-525
2,163241,106,180,-2463,-1022,-566,-331,197,185,-525
2,163247,106,180,-2463,-1022,-566,-331,197,185,-525
2,163252,106,180,-2463,-1022,-566,-331,197,185,-525
2,163258,106,184,-2464,-1029,-571,-327,197,185,-525
2,163263,106,184,-2464,-1029,-571,-327,197,185,-525
2,163269,106,184,-2464,-1029,-571,-327,197,185,-525
2,163275,107,183,-2462,-1021,-575,-321,197,185,-525
2,163280,107,183,-2462,-1021,-575,-321,197,185,-525
2,163286,107,183,-2462,-1021,-575,-321,197,185,-525
2,163292,107,183,-2462,-1021,-575,-321,197,185,-525
2,163297,106,186,-2470,-1026,-578,-326,197,185,-525
2,163302,106,186,-2470,-1026,-578,-326,197,185,-525
2,163308,106,186,-2470,-1026,-578,-326,197,185,-525
2,163313,106,186,-2470,-1026,-578,-326,197,185,-525
2,163318,112,183,-2467,-1017,-580,-322,197,185,-525
2,163324,112,183,-2467,-1017,-580,-322,197,185,-525
2,163330,112,183,-2467,-1017,-580,-322,197,185,-525
2,163335,109,184,-2466,-1026,-576,-326,197,185,-525
2,163341,109,184,-2466,-1026,-576,-326,197,185,-525
2,163346,109,184,-2466,-1026,-576,-326,197,185,-525
2,163352,109,184,-2466,-1026,-576,-326,197,185,-525
2,163357,105,185,-2461,-1017,-568,-325,197,185,-525
2,163362,105,185,-2461,-1017,-568,-325,197,185,-525
2,163367,105,185,-2461,-1017,-568,-325,197,185,-525
2,163373,105,185,-2461,-1017,-568,-325,197,185,-525
2,163379,108,184,-2464,-1026,-578,-326,195,189,-527
2,163384,108,184,-2464,-1026,-578,-326,195,189,-527
2,163389,108,184,-2464,-1026,-578,-326,195,189,-527
2,163396,106,183,-2466,-1023,-576,-319,195,189,-527
2,163401,106,183,-2466,-1023,-576,-319,195,189,-527
2,163406,106,183,-2466,-1023,-576,-319,195,189,-527
2,163412,106,183,-2466,-1023,-576,-319,195,189,-527
2,163418,107,186,-2465,-1031,-575,-330,195,189,-527
2,163423,107,186,-2465,-1031,-575,-330,195,189,-527
2,163429,107,186,-2465,-1031,-575,-330,195,189,-527
2,163434,108,183,-2468,-1034,-578,-333,195,189,-527
2,163440,108,183,-2468,-1034,-578,-333,195,189,-527
2,163445,108,183,-2468,-1034,-578,-333,195,189,-527
2,163451,108,183,-2468,-1034,-578,-333,195,189,-527
2,163457,107,181,-2466,-1032,-575,-327,195,189,-527
2,163462,107,181,-2466,-1032,-575,-327,195,189,-527
2,163468,107,181,-2466,-1032,-575,-327,195,189,-527
2,163473,107,181,-2466,-1032,-575,-327,195,189,-527
2,163479,108,182,-2462,-1026,-579,-327,195,189,-527
2,163484,108,182,-2462,-1026,-579,-327,195,189,-527
2,163490,108,182,-2462,-1026,-579,-327,195,189,-527
2,163495,106,185,-2464,-1024,-574,-319,195,189,-523
2,163501,106,185,-2464,-1024,-574,-319,195,189,-523
2,163506,106,185,-2464,-1024,-574,-319,195,189,-523
2,163511,106,185,-2464,-1024,-574,-319,195,189,-523
2,163517,107,182,-2456,-1021,-574,-319,195,189,-523
2,163522,107,182,-2456,-1021,-574,-319,195,189,-523
2,163528,107,182,-2456,-1021,-574,-319,195,189,-523
2,163533,107,182,-2456,-1021,-574,-319,195,189,-523
2,163538,105,183,-2458,-1026,-573,-326,195,189,-523
2,163545,105,183,-2458,-1026,-573,-326,195,189,-523
2,163550,105,183,-2458,-1026,-573,-326,195,189,-523
2,163555,109,183,-2467,-1022,-577,-328,195,189,-523
2,163561,109,183,-2467,-1022,-577,-328,195,189,-523
2,163566,109,183,-2467,-1022,-577,-328,195,189,-523
2,163572,109,183,-2467,-1022,-577,-328,195,189,-523
2,163578,109,184,-2464,-1027,-585,-325,195,189,-523
2,163584,109,184,-2464,-1027,-585,-325,195,189,-523
2,163589,109,184,-2464,-1027,-585,-325,195,189,-523
2,163595,104,185,-2463,-1031,-581,-327,195,189,-523
2,163600,104,185,-2463,-1031,-581,-327,195,189,-523
2,163606,104,185,-2463,-1031,-581,-327,195,189,-523
2,163612,104,185,-2463,-1031,-581,-327,195,189,-523
2,163617,106,186,-2464,-1026,-580,-320,200,182,-516
2,163622,106,186,-2464,-1026,-580,-320,200,182,-516
2,163629,106,186,-2464,-1026,-580,-320,200,182,-516
2,163635,106,186,-2464,-1026,-580,-320,200,182,-516
2,163640,107,188,-2458,-1027,-582,-332,200,182,-516
2,163646,107,188,-2458,-1027,-582,-332,200,182,-516
2,163651,107,188,-2458,-1027,-582,-332,200,182,-516
2,163657,110,184,-2465,-1031,-578,-334,200,182,-516
2,163662,110,184,-2465,-1031,-578,-334,200,182,-516
2,163668,110,184,-2465,-1031,-578,-334,200,182,-516
2,163675,110,184,-2465,-1031,-578,-334,200,182,-516
2,163679,104,185,-2463,-1027,-579,-334,200,182,-516
2,163685,104,185,-2463,-1027,-579,-334,200,182,-516
2,163690,104,185,-2463,-1027,-579,-334,200,182,-516
2,163696,109,185,-2465,-1021,-579,-327,200,182,-516
2,163701,109,185,-2465,-1021,-579,-327,200,182,-516
2,163706,109,185,-2465,-1021,-579,-327,200,182,-516
2,163713,109,185,-2465,-1021,-579,-327,200,182,-516
2,163718,107,181,-2464,-1021,-578,-323,200,182,-516
2,163724,107,181,-2464,-1021,-578,-323,200,182,-516
2,163729,107,181,-2464,-1021,-578,-323,200,182,-516
2,163735,106,181,-2465,-1022,-581,-321,200,182,-516
2,163740,106,181,-2465,-1022,-581,-321,200,182,-516
2,163745,106,181,-2465,-1022,-581,-321,200,182,-516
2,163750,106,181,-2465,-1022,-581,-321,200,182,-516
2,163757,108,185,-2463,-1028,-578,-322,202,194,-528
2,163763,108,185,-2463,-1028,-578,-322,202,194,-528
2,163768,108,185,-2463,-1028,-578,-322,202,194,-528
2,163773,108,185,-2463,-1028,-578,-322,202,194,-528
2,163779,105,184,-2466,-1021,-575,-313,202,194,-528
2,163784,105,184,-2466,-1021,-575,-313,202,194,-528
2,163790,105,184,-2466,-1021,-575,-313,202,194,-528
2,163795,108,185,-2468,-1028,-573,-317,202,194,-528
2,163802,108,185,-2468,-1028,-573,-317,202,194,-528
2,163807,108,185,-2468,-1028,-573,-317,202,194,-528
2,163812,108,185,-2468,-1028,-573,-317,202,194,-528
2,163818,110,187,-2468,-1022,-576,-322,202,194,-528
2,163823,110,187,-2468,-1022,-576,-322,202,194,-528
2,163829,110,187,-2468,-1022,-576,-322,202,194,-528
2,163834,110,187,-2468,-1022,-576,-322,202,194,-528
2,163840,110,185,-2467,-1023,-574,-326,202,194,-528
2,163846,110,185,-2467,-1023,-574,-326,202,194,-528
2,163851,110,185,-2467,-1023,-574,-326,202,194,-528
2,163856,108,184,-2466,-1037,-576,-327,202,194,-528
2,163861,108,184,-2466,-1037,-576,-327,202,194,-528
2,163867,108,184,-2466,-1037,-576,-327,202,194,-528
2,163872,108,184,-2466,-1037,-576,-327,202,194,-528
2,163878,104,187,-2466,-1036,-587,-330,197,191,-525
2,163884,104,187,-2466,-1036,-587,-330,197,191,-525
2,163890,104,187,-2466,-1036,-587,-330,197,191,-525
2,163895,106,183,-2462,-1029,-576,-332,197,191,-525
2,163900,106,183,-2462,-1029,-576,-332,197,191,-525
2,163906,106,183,-2462,-1029,-576,-332,197,191,-525
2,163911,106,183,-2462,-1029,-576,-332,197,191,-525
2,163916,108,182,-2466,-1023,-577,-321,197,191,-525
2,163922,108,182,-2466,-1023,-577,-321,197,191,-525
2,163928,108,182,-2466,-1023,-577,-321,197,191,-525
2,163933,108,182,-2466,-1023,-577,-321,197,191,-525
2,163939,106,183,-2469,-1029,-576,-320,197,191,-525
2,163944,106,183,-2469,-1029,-576,-320,197,191,-525
2,163950,106,183,-2469,-1029,-576,-320,197,191,-525
2,163955,106,183,-2469,-1029,-576,-320,197,191,-525
2,163960,108,185,-2462,-1028,-582,-324,197,191,-525
2,163965,108,185,-2462,-1028,-582,-324,197,191,-525
2,163972,108,185,-2462,-1028,-582,-324,197,191,-525
2,163978,106,185,-2462,-1030,-582,-320,197,191,-525
2,163983,106,185,-2462,-1030,-582,-320,197,191,-525
2,163988,106,185,-2462,-1030,-582,-320,197,191,-525
2,163993,106,185,-2462,-1030,-582,-320,197,191,-525
2,163998,107,182,-2464,-1024,-580,-327,197,191,-525
2,164003,107,182,-2464,-1024,-580,-327,197,191,-525
2,164008,107,182,-2464,-1024,-580,-327,197,191,-525
2,164015,107,182,-2464,-1024,-580,-327,197,191,-525
2,164021,106,185,-2457,-1029,-575,-329,196,188,-528
2,164026,106,185,-2457,-1029,-575,-329,196,188,-528
2,164032,106,185,-2457,-1029,-575,-329,196,188,-528
2,164038,107,183,-2463,-1022,-579,-327,196,188,-528
2,164043,107,183,-2463,-1022,-579,-327,196,188,-528
2,164049,107,183,-2463,-1022,-579,-327,196,188,-528
2,164056,109,185,-2466,-1022,-579,-319,196,188,-528
2,164061,109,185,-2466,-1022,-579,-319,196,188,-528
2,164066,109,185,-2466,-1022,-579,-319,196,188,-528
2,164072,109,185,-2466,-1022,-579,-319,196,188,-528
2,164078,111,187,-2466,-1028,-585,-323,196,188,-528
2,164083,111,187,-2466,-1028,-585,-323,196,188,-528
2,164089,111,187,-2466,-1028,-585,-323,196,188,-528
2,164094,111,187,-2466,-1028,-585,-323,196,188,-528
2,164100,106,179,-2467,-1032,-584,-321,196,188,-528
2,164106,106,179,-2467,-1032,-584,-321,196,188,-528
2,164112,106,179,-2467,-1032,-584,-321,196,188,-528
2,164118,105,185,-2466,-1027,-576,-319,196,188,-528
2,164124,105,185,-2466,-1027,-576,-319,196,188,-528
2,164129,105,185,-2466,-1027,-576,-319,196,188,-528
2,164135,106,181,-2460,-1030,-579,-323,195,188,-528
2,164141,106,181,-2460,-1030,-579,-323,195,185,-523
2,164146,106,181,-2460,-1030,-579,-323,195,185,-523
2,164151,106,181,-2460,-1030,-579,-323,195,185,-523
2,164156,108,184,-2462,-1033,-573,-326,195,185,-523
2,164162,108,184,-2462,-1033,-573,-326,195,185,-523
2,164167,108,184,-2462,-1033,-573,-326,195,185,-523
2,164172,108,184,-2462,-1033,-573,-326,195,185,-523
2,164177,108,183,-2462,-1037,-580,-324,195,185,-523
2,164183,108,183,-2462,-1037,-580,-324,195,185,-523
2,164188,108,183,-2462,-1037,-580,-324,195,185,-523
2,164193,108,183,-2462,-1037,-580,-324,195,185,-523
2,164199,108,184,-2465,-1031,-577,-330,195,185,-523
2,164204,108,184,-2465,-1031,-577,-330,195,185,-523
2,164210,108,184,-2465,-1031,-577,-330,195,185,-523
2,164215,103,184,-2467,-1024,-577,-325,195,185,-523
2,164220,103,184,-2467,-1024,-577,-325,195,185,-523
2,164226,103,184,-2467,-1024,-577,-325,195,185,-523
2,164232,103,184,-2467,-1024,-577,-325,195,185,-523
2,164237,105,185,-2467,-1032,-571,-333,195,185,-523
2,164242,105,185,-2467,-1032,-571,-333,195,185,-523
2,164247,105,185,-2467,-1032,-571,-333,195,185,-523
2,164252,105,185,-2467,-1032,-571,-333,195,185,-523
2,164257,109,184,-2466,-1034,-575,-329,195,187,-525
2,164263,109,184,-2466,-1034,-575,-329,195,187,-525
2,164269,109,184,-2466,-1034,-575,-329,195,187,-525
2,164274,109,184,-2466,-1034,-575,-329,195,187,-525
2,164280,108,185,-2464,-1029,-577,-333,195,187,-525
2,164285,108,185,-2464,-1029,-577,-333,195,187,-525
2,164290,108,185,-2464,-1029,-577,-333,195,187,-525
2,164295,108,185,-2464,-1029,-577,-333,195,187,-525
2,164300,105,182,-2465,-1024,-576,-327,195,187,-525
2,164306,105,182,-2465,-1024,-576,-327,195,187,-525
2,164312,105,182,-2465,-1024,-576,-327,195,187,-525
2,164318,107,185,-2464,-1023,-570,-324,195,187,-525
2,164323,107,185,-2464,-1023,-570,-324,195,187,-525
2,164328,107,185,-2464,-1023,-570,-324,195,187,-525
2,164334,107,185,-2464,-1023,-570,-324,195,187,-525
2,164339,106,183,-2463,-1028,-576,-328,195,187,-525
2,164344,106,183,-2463,-1028,-576,-328,195,187,-525
2,164350,106,183,-2463,-1028,-576,-328,195,187,-525
2,164356,106,183,-2463,-1028,-576,-328,195,187,-525
2,164361,108,187,-2461,-1032,-574,-330,195,187,-525
2,164367,108,187,-2461,-1032,-574,-330,195,187,-525
2,164372,108,187,-2461,-1032,-574,-330,195,187,-525
2,164378,107,184,-2464,-1026,-581,-323,195,187,-525
2,164383,107,184,-2464,-1026,-581,-323,195,187,-525
2,164388,107,184,-2464,-1026,-581,-323,195,187,-525
2,164395,107,184,-2464,-1026,-581,-323,195,187,-525
2,164400,106,185,-2457,-1033,-584,-325,200,184,-526
2,164405,106,185,-2457,-1033,-584,-325,200,184,-526
2,164411,106,185,-2457,-1033,-584,-325,200,184,-526
