imu,time,ax,ay,az,gx,gy,gz,mx,my,mz
0,295499,405,-1361,-536,-1490,-313,-40,468,112,-256
0,295507,405,-1361,-536,-1490,-313,-40,468,112,-256
0,295516,405,-1361,-536,-1490,-313,-40,468,112,-256
0,295524,408,-1364,-531,-1487,-312,-38,468,112,-256
0,295531,408,-1364,-531,-1487,-312,-38,468,112,-256
0,295539,410,-1362,-533,-1484,-312,-43,468,112,-256
0,295547,410,-1362,-533,-1484,-312,-43,468,112,-256
0,295555,410,-1362,-533,-1484,-312,-43,468,112,-256
0,295561,410,-1361,-534,-1489,-307,-42,466,108,-244
0,295568,410,-1361,-534,-1489,-307,-42,466,108,-244
0,295575,410,-1361,-534,-1489,-307,-42,466,108,-244
0,295581,408,-1359,-537,-1493,-308,-43,466,108,-244
0,295587,408,-1359,-537,-1493,-308,-43,466,108,-244
0,295595,408,-1359,-537,-1493,-308,-43,466,108,-244
0,295600,412,-1360,-538,-1484,-310,-40,466,108,-244
0,295606,412,-1360,-538,-1484,-310,-40,466,108,-244
0,295613,412,-1360,-538,-1484,-310,-40,466,108,-244
0,295618,410,-1363,-537,-1492,-313,-43,466,108,-244
0,295624,410,-1363,-537,-1492,-313,-43,466,108,-244
0,295630,410,-1363,-537,-1492,-313,-43,466,108,-244
0,295636,410,-1363,-537,-1492,-313,-43,466,108,-244
0,295642,411,-1360,-536,-1489,-301,-44,466,108,-244
0,295648,411,-1360,-536,-1489,-301,-44,466,108,-244
0,295653,411,-1360,-536,-1489,-301,-44,466,108,-244
0,295659,411,-1362,-537,-1485,-312,-42,466,108,-244
0,295664,411,-1362,-537,-1485,-312,-42,466,108,-244
0,295670,411,-1362,-537,-1485,-312,-42,466,108,-244
0,295675,411,-1362,-537,-1485,-312,-42,466,108,-244
0,295681,407,-1361,-535,-1486,-312,-40,471,109,-253
0,295687,407,-1361,-535,-1486,-312,-40,471,109,-253
0,295692,407,-1361,-535,-1486,-312,-40,471,109,-253
0,295698,409,-1360,-535,-1486,-317,-40,471,109,-253
0,295704,409,-1360,-535,-1486,-317,-40,471,109,-253
0,295709,409,-1360,-535,-1486,-317,-40,471,109,-253
0,295714,409,-1360,-535,-1486,-317,-40,471,109,-253
0,295719,410,-1362,-532,-1489,-311,-46,471,109,-253
0,295725,410,-1362,-532,-1489,-311,-46,471,109,-253
0,295731,410,-1362,-532,-1489,-311,-46,471,109,-253
0,295736,410,-1362,-532,-1489,-311,-46,471,109,-253
0,295742,409,-1361,-535,-1487,-316,-50,471,109,-253
0,295747,409,-1361,-535,-1487,-316,-50,471,109,-253
0,295752,409,-1361,-535,-1487,-316,-50,471,109,-253
0,295758,408,-1363,-534,-1490,-309,-46,471,109,-253
0,295763,408,-1363,-534,-1490,-309,-46,471,109,-253
0,295769,408,-1363,-534,-1490,-309,-46,471,109,-253
0,295775,408,-1363,-534,-1490,-309,-46,471,109,-253
0,295780,408,-1360,-531,-1487,-308,-41,471,109,-253
0,295786,408,-1360,-531,-1487,-308,-41,471,109,-253
0,295791,408,-1360,-531,-1487,-308,-41,471,109,-253
0,295797,408,-1360,-531,-1487,-308,-41,471,109,-253
0,295803,408,-1360,-534,-1486,-306,-50,470,112,-250
0,295809,408,-1360,-534,-1486,-306,-50,470,112,-250
0,295815,408,-1360,-534,-1486,-306,-50,470,112,-250
0,295820,411,-1363,-532,-1483,-313,-46,470,112,-250
0,295825,411,-1363,-532,-1483,-313,-46,470,112,-250
0,295830,411,-1363,-532,-1483,-313,-46,470,112,-250
0,295835,411,-1363,-532,-1483,-313,-46,470,112,-250
0,295841,410,-1361,-533,-1486,-310,-41,470,112,-250
0,295846,410,-1361,-533,-1486,-310,-41,470,112,-250
0,295852,410,-1361,-533,-1486,-310,-41,470,112,-250
0,295858,410,-1361,-533,-1486,-310,-41,470,112,-250
0,295863,409,-1360,-536,-1480,-310,-36,470,112,-250
0,295869,409,-1360,-536,-1480,-310,-36,470,112,-250
0,295874,409,-1360,-536,-1480,-310,-36,470,112,-250
0,295880,412,-1360,-538,-1477,-311,-41,470,112,-250
0,295885,412,-1360,-538,-1477,-311,-41,470,112,-250
0,295891,412,-1360,-538,-1477,-311,-41,470,112,-250
0,295897,412,-1360,-538,-1477,-311,-41,470,112,-250
0,295902,411,-1362,-535,-1478,-306,-44,470,112,-250
0,295908,411,-1362,-535,-1478,-306,-44,470,112,-250
0,295914,411,-1362,-535,-1478,-306,-44,470,112,-250
0,295919,410,-1362,-529,-1480,-305,-38,475,105,-249
0,295924,410,-1362,-529,-1480,-305,-38,475,105,-249
0,295930,410,-1362,-529,-1480,-305,-38,475,105,-249
0,295936,410,-1362,-529,-1480,-305,-38,475,105,-249
0,295941,409,-1361,-529,-1487,-302,-36,475,105,-249
0,295946,409,-1361,-529,-1487,-302,-36,475,105,-249
0,295952,409,-1361,-529,-1487,-302,-36,475,105,-249
0,295957,409,-1361,-529,-1487,-302,-36,475,105,-249
0,295963,409,-1361,-532,-1487,-305,-43,475,105,-249
0,295968,409,-1361,-532,-1487,-305,-43,475,105,-249
0,295974,409,-1361,-532,-1487,-305,-43,475,105,-249
0,295980,413,-1363,-535,-1491,-312,-53,475,105,-249
0,295985,413,-1363,-535,-1491,-312,-53,475,105,-249
0,295990,413,-1363,-535,-1491,-312,-53,475,105,-249
0,295996,413,-1363,-535,-1491,-312,-53,475,105,-249
0,296001,408,-1361,-536,-1488,-313,-46,475,105,-249
0,296007,408,-1361,-536,-1488,-313,-46,475,105,-249
0,296012,408,-1361,-536,-1488,-313,-46,475,105,-249
0,296017,408,-1361,-536,-1488,-313,-46,475,105,-249
0,296024,412,-1364,-535,-1487,-311,-44,475,105,-249
0,296030,412,-1364,-535,-1487,-311,-44,475,105,-249
0,296035,412,-1364,-535,-1487,-311,-44,475,105,-249
0,296040,412,-1361,-533,-1484,-316,-47,471,111,-253
0,296046,412,-1361,-533,-1484,-316,-47,471,111,-253
0,296051,412,-1361,-533,-1484,-316,-47,471,111,-253
0,296057,412,-1361,-533,-1484,-316,-47,471,111,-253
0,296064,411,-1362,-532,-1487,-314,-38,471,111,-253
0,296069,411,-1362,-532,-1487,-314,-38,471,111,-253
0,296074,411,-1362,-532,-1487,-314,-38,471,111,-253
0,296080,410,-1363,-533,-1486,-308,-43,471,111,-253
0,296085,410,-1363,-533,-1486,-308,-43,471,111,-253
0,296090,410,-1363,-533,-1486,-308,-43,471,111,-253
0,296095,410,-1363,-533,-1486,-308,-43,471,111,-253
0,296101,408,-1359,-532,-1486,-302,-48,471,111,-253
0,296108,408,-1359,-532,-1486,-302,-48,471,111,-253
0,296113,408,-1359,-532,-1486,-302,-48,471,111,-253
0,296118,408,-1359,-532,-1486,-302,-48,471,111,-253
0,296124,408,-1359,-532,-1486,-302,-48,471,111,-253
0,296130,408,-1359,-532,-1486,-302,-48,471,111,-253
0,296135,408,-1359,-532,-1486,-302,-48,471,111,-253
0,296141,406,-1360,-532,-1488,-310,-50,471,111,-253
0,296147,406,-1360,-532,-1488,-310,-50,471,111,-253
0,296153,406,-1360,-532,-1488,-310,-50,471,111,-253
0,296158,409,-1362,-535,-1492,-313,-47,471,111,-253
0,296164,409,-1362,-535,-1492,-313,-47,471,111,-253
0,296169,409,-1362,-535,-1492,-313,-47,471,111,-253
0,296174,409,-1362,-535,-1492,-313,-47,471,111,-253
0,296179,411,-1361,-534,-1491,-314,-48,470,114,-256
0,296185,411,-1361,-534,-1491,-314,-48,470,114,-256
0,296192,411,-1361,-534,-1491,-314,-48,470,114,-256
0,296197,411,-1361,-534,-1491,-314,-48,470,114,-256
0,296203,406,-1361,-530,-1491,-304,-49,470,114,-256
0,296208,406,-1361,-530,-1491,-304,-49,470,114,-256
0,296214,406,-1361,-530,-1491,-304,-49,470,114,-256
0,296218,411,-1361,-534,-1496,-313,-42,470,114,-256
0,296224,411,-1361,-534,-1496,-313,-42,470,114,-256
0,296230,411,-1361,-534,-1496,-313,-42,470,114,-256
0,296236,411,-1361,-534,-1496,-313,-42,470,114,-256
0,296241,411,-1361,-533,-1487,-313,-42,470,114,-256
0,296247,411,-1361,-533,-1487,-313,-42,470,114,-256
0,296252,411,-1361,-533,-1487,-313,-42,470,114,-256
0,296257,411,-1361,-533,-1487,-313,-42,470,114,-256
0,296262,406,-1363,-531,-1493,-311,-46,470,114,-256
0,296268,406,-1363,-531,-1493,-311,-46,470,114,-256
0,296274,406,-1363,-531,-1493,-311,-46,470,114,-256
0,296280,409,-1360,-530,-1493,-313,-39,470,114,-256
0,296286,409,-1360,-530,-1493,-313,-39,470,114,-256
0,296291,409,-1360,-530,-1493,-313,-39,470,114,-256
0,296296,409,-1360,-530,-1493,-313,-39,470,114,-256
0,296302,412,-1361,-534,-1490,-319,-41,473,105,-253
0,296307,412,-1361,-534,-1490,-319,-41,473,105,-253
0,296313,412,-1361,-534,-1490,-319,-41,473,105,-253
0,296318,411,-1364,-533,-1492,-311,-42,473,105,-253
0,296324,411,-1364,-533,-1492,-311,-42,473,105,-253
0,296330,411,-1364,-533,-1492,-311,-42,473,105,-253
0,296335,411,-1364,-533,-1492,-311,-42,473,105,-253
0,296341,409,-1363,-534,-1494,-307,-42,473,105,-253
0,296346,409,-1363,-534,-1494,-307,-42,473,105,-253
0,296351,409,-1363,-534,-1494,-307,-42,473,105,-253
0,296357,409,-1363,-534,-1494,-307,-42,473,105,-253
0,296363,409,-1361,-536,-1491,-305,-44,473,105,-253
0,296368,409,-1361,-536,-1491,-305,-44,473,105,-253
0,296374,409,-1361,-536,-1491,-305,-44,473,105,-253
0,296379,410,-1366,-538,-1484,-306,-39,473,105,-253
0,296385,410,-1366,-538,-1484,-306,-39,473,105,-253
0,296390,410,-1366,-538,-1484,-306,-39,473,105,-253
0,296395,410,-1366,-538,-1484,-306,-39,473,105,-253
0,296400,408,-1362,-532,-1494,-312,-42,473,105,-253
0,296407,408,-1362,-532,-1494,-312,-42,473,105,-253
0,296412,408,-1362,-532,-1494,-312,-42,473,105,-253
0,296417,408,-1362,-532,-1494,-312,-42,473,105,-253
0,296423,411,-1362,-528,-1486,-308,-45,468,110,-248
0,296429,411,-1362,-528,-1486,-308,-45,468,110,-248
0,296436,411,-1362,-528,-1486,-308,-45,468,110,-248
0,296443,410,-1360,-528,-1485,-306,-44,468,110,-248
0,296449,410,-1360,-528,-1485,-306,-44,468,110,-248
0,296454,410,-1360,-528,-1485,-306,-44,468,110,-248
0,296459,408,-1358,-535,-1484,-301,-43,468,110,-248
0,296464,408,-1358,-535,-1484,-301,-43,468,110,-248
0,296470,408,-1358,-535,-1484,-301,-43,468,110,-248
0,296475,408,-1358,-535,-1484,-301,-43,468,110,-248
0,296480,411,-1361,-532,-1484,-310,-38,468,110,-248
0,296486,411,-1361,-532,-1484,-310,-38,468,110,-248
0,296492,411,-1361,-532,-1484,-310,-38,468,110,-248
0,296498,411,-1361,-532,-1484,-310,-38,468,110,-248
0,296503,409,-1365,-534,-1480,-305,-42,468,110,-248
0,296509,409,-1365,-534,-1480,-305,-42,468,110,-248
0,296514,409,-1365,-534,-1480,-305,-42,468,110,-248
0,296519,411,-1362,-538,-1482,-315,-48,468,110,-248
0,296524,411,-1362,-538,-1482,-315,-48,468,110,-248
0,296530,411,-1362,-538,-1482,-315,-48,468,110,-248
0,296536,411,-1362,-538,-1482,-315,-48,468,110,-248
0,296542,413,-1361,-535,-1480,-312,-51,459,105,-251
0,296547,413,-1361,-535,-1480,-312,-51,459,105,-251
0,296552,413,-1361,-535,-1480,-312,-51,459,105,-251
0,296558,412,-1363,-530,-1489,-310,-42,459,105,-251
0,296564,412,-1363,-530,-1489,-310,-42,459,105,-251
0,296569,412,-1363,-530,-1489,-310,-42,459,105,-251
0,296576,412,-1363,-530,-1489,-310,-42,459,105,-251
0,296581,410,-1362,-532,-1487,-304,-44,459,105,-251
0,296587,410,-1362,-532,-1487,-304,-44,459,105,-251
0,296592,410,-1362,-532,-1487,-304,-44,459,105,-251
0,296597,410,-1362,-532,-1487,-304,-44,459,105,-251
0,296602,409,-1359,-533,-1490,-308,-53,459,105,-251
0,296607,409,-1359,-533,-1490,-308,-53,459,105,-251
0,296613,409,-1359,-533,-1490,-308,-53,459,105,-251
0,296619,408,-1363,-535,-1491,-312,-45,459,105,-251
0,296625,408,-1363,-535,-1491,-312,-45,459,105,-251
0,296630,408,-1363,-535,-1491,-312,-45,459,105,-251
0,296635,408,-1363,-535,-1491,-312,-45,459,105,-251
0,296640,411,-1363,-532,-1492,-312,-41,459,105,-251
0,296645,411,-1363,-532,-1492,-312,-41,459,105,-251
0,296651,411,-1363,-532,-1492,-312,-41,459,105,-251
0,296656,411,-1363,-532,-1492,-312,-41,459,105,-251
0,296662,409,-1359,-532,-1492,-300,-46,473,101,-247
0,296667,409,-1359,-532,-1492,-300,-46,473,101,-247
0,296672,409,-1359,-532,-1492,-300,-46,473,101,-247
0,296678,409,-1359,-532,-1492,-300,-46,473,101,-247
0,296683,413,-1361,-535,-1493,-305,-43,473,101,-247
0,296688,413,-1361,-535,-1493,-305,-43,473,101,-247
0,296693,413,-1361,-535,-1493,-305,-43,473,101,-247
0,296699,409,-1359,-535,-1487,-307,-42,473,101,-247
0,296706,409,-1359,-535,-1487,-307,-42,473,101,-247
0,296711,409,-1359,-535,-1487,-307,-42,473,101,-247
0,296716,409,-1359,-535,-1487,-307,-42,473,101,-247
0,296721,409,-1360,-531,-1488,-311,-39,473,101,-247
0,296726,409,-1360,-531,-1488,-311,-39,473,101,-247
0,296732,409,-1360,-531,-1488,-311,-39,473,101,-247
0,296737,409,-1360,-531,-1488,-311,-39,473,101,-247
0,296743,411,-1360,-536,-1489,-311,-40,473,101,-247
0,296749,411,-1360,-536,-1489,-311,-40,473,101,-247
0,296755,411,-1360,-536,-1489,-311,-40,473,101,-247
0,296760,410,-1361,-533,-1493,-308,-42,473,101,-247
0,296765,410,-1361,-533,-1493,-308,-42,473,101,-247
0,296771,410,-1361,-533,-1493,-308,-42,473,101,-247
0,296776,410,-1361,-533,-1493,-308,-42,473,101,-247
0,296781,410,-1362,-532,-1490,-309,-43,473,101,-247
0,296787,410,-1362,-532,-1490,-309,-43,473,101,-247
0,296793,410,-1362,-532,-1490,-309,-43,473,101,-247
0,296798,409,-1359,-531,-1489,-306,-40,473,101,-247
0,296804,409,-1359,-531,-1489,-306,-40,476,106,-248
0,296809,409,-1359,-531,-1489,-306,-40,476,106,-248
0,296814,409,-1359,-531,-1489,-306,-40,476,106,-248
0,296820,411,-1361,-531,-1491,-308,-44,476,106,-248
0,296825,411,-1361,-531,-1491,-308,-44,476,106,-248
0,296830,411,-1361,-531,-1491,-308,-44,476,106,-248
0,296836,411,-1361,-531,-1491,-308,-44,476,106,-248
0,296841,407,-1362,-534,-1488,-310,-39,476,106,-248
0,296847,407,-1362,-534,-1488,-310,-39,476,106,-248
0,296852,407,-1362,-534,-1488,-310,-39,476,106,-248
0,296857,407,-1362,-534,-1488,-310,-39,476,106,-248
0,296862,408,-1362,-531,-1486,-304,-45,476,106,-248
0,296867,408,-1362,-531,-1486,-304,-45,476,106,-248
0,296873,408,-1362,-531,-1486,-304,-45,476,106,-248
0,296879,410,-1362,-530,-1487,-310,-40,476,106,-248
0,296885,410,-1362,-530,-1487,-310,-40,476,106,-248
0,296890,410,-1362,-530,-1487,-310,-40,476,106,-248
0,296895,410,-1362,-530,-1487,-310,-40,476,106,-248
0,296901,409,-1364,-534,-1486,-308,-52,476,106,-248
0,296906,409,-1364,-534,-1486,-308,-52,476,106,-248
0,296911,409,-1364,-534,-1486,-308,-52,476,106,-248
0,296916,409,-1364,-534,-1486,-308,-52,476,106,-248
0,296923,407,-1362,-538,-1484,-309,-53,466,104,-252
0,296928,407,-1362,-538,-1484,-309,-53,466,104,-252
0,296934,407,-1362,-538,-1484,-309,-53,466,104,-252
0,296939,410,-1360,-530,-1491,-306,-46,466,104,-252
0,296945,410,-1360,-530,-1491,-306,-46,466,104,-252
0,296953,410,-1360,-530,-1491,-306,-46,466,104,-252
0,296960,408,-1361,-539,-1496,-308,-46,466,104,-252
0,296965,408,-1361,-539,-1496,-308,-46,466,104,-252
0,296970,408,-1361,-539,-1496,-308,-46,466,104,-252
0,296976,408,-1361,-539,-1496,-308,-46,466,104,-252
0,296981,409,-1363,-534,-1497,-310,-38,466,104,-252
0,296986,409,-1363,-534,-1497,-310,-38,466,104,-252
0,296991,409,-1363,-534,-1497,-310,-38,466,104,-252
0,296996,409,-1363,-534,-1497,-310,-38,466,104,-252
0,297003,411,-1363,-535,-1486,-307,-43,466,104,-252
0,297008,411,-1363,-535,-1486,-307,-43,466,104,-252
0,297014,411,-1363,-535,-1486,-307,-43,466,104,-252
0,297019,409,-1364,-533,-1489,-311,-43,466,104,-252
0,297024,409,-1364,-533,-1489,-311,-43,466,104,-252
0,297029,409,-1364,-533,-1489,-311,-43,466,104,-252
0,297035,409,-1364,-533,-1489,-311,-43,466,104,-252
0,297040,410,-1362,-534,-1488,-307,-44,470,112,-248
0,297047,410,-1362,-534,-1488,-307,-44,470,112,-248
0,297052,410,-1362,-534,-1488,-307,-44,470,112,-248
0,297058,410,-1362,-534,-1488,-307,-44,470,112,-248
0,297063,413,-1362,-535,-1481,-305,-47,470,112,-248
0,297069,413,-1362,-535,-1481,-305,-47,470,112,-248
0,297074,413,-1362,-535,-1481,-305,-47,470,112,-248
0,297080,411,-1364,-535,-1491,-312,-41,470,112,-248
0,297085,411,-1364,-535,-1491,-312,-41,470,112,-248
0,297091,411,-1364,-535,-1491,-312,-41,470,112,-248
0,297097,411,-1364,-535,-1491,-312,-41,470,112,-248
0,297102,411,-1363,-532,-1487,-314,-54,470,112,-248
0,297108,411,-1363,-532,-1487,-314,-54,470,112,-248
0,297113,411,-1363,-532,-1487,-314,-54,470,112,-248
0,297118,411,-1363,-532,-1487,-314,-54,470,112,-248
0,297124,411,-1361,-539,-1492,-309,-47,470,112,-248
0,297129,411,-1361,-539,-1492,-309,-47,470,112,-248
0,297135,411,-1361,-539,-1492,-309,-47,470,112,-248
0,297141,409,-1359,-540,-1488,-311,-45,470,112,-248
0,297146,409,-1359,-540,-1488,-311,-45,470,112,-248
0,297151,409,-1359,-540,-1488,-311,-45,470,112,-248
0,297156,409,-1359,-540,-1488,-311,-45,470,112,-248
0,297162,410,-1362,-534,-1487,-312,-42,474,106,-256
0,297167,410,-1362,-534,-1487,-312,-42,474,106,-256
0,297172,410,-1362,-534,-1487,-312,-42,474,106,-256
0,297179,407,-1362,-535,-1492,-309,-35,474,106,-256
0,297185,407,-1362,-535,-1492,-309,-35,474,106,-256
0,297190,407,-1362,-535,-1492,-309,-35,474,106,-256
0,297196,407,-1362,-535,-1492,-309,-35,474,106,-256
0,297201,408,-1363,-534,-1483,-308,-40,474,106,-256
0,297207,408,-1363,-534,-1483,-308,-40,474,106,-256
0,297212,408,-1363,-534,-1483,-308,-40,474,106,-256
0,297218,408,-1363,-534,-1483,-308,-40,474,106,-256
0,297224,410,-1362,-533,-1487,-303,-45,474,106,-256
0,297229,410,-1362,-533,-1487,-303,-45,474,106,-256
0,297234,410,-1362,-533,-1487,-303,-45,474,106,-256
0,297240,412,-1363,-534,-1485,-315,-42,474,106,-256
0,297245,412,-1363,-534,-1485,-315,-42,474,106,-256
0,297250,412,-1363,-534,-1485,-315,-42,474,106,-256
0,297255,412,-1363,-534,-1485,-315,-42,474,106,-256
0,297261,410,-1362,-535,-1490,-307,-37,474,106,-256
0,297267,410,-1362,-535,-1490,-307,-37,474,106,-256
0,297272,410,-1362,-535,-1490,-307,-37,474,106,-256
0,297278,410,-1362,-535,-1490,-307,-37,474,106,-256
0,297283,405,-1362,-534,-1489,-319,-45,477,109,-241
0,297288,405,-1362,-534,-1489,-319,-45,477,109,-241
0,297294,405,-1362,-534,-1489,-319,-45,477,109,-241
0,297299,408,-1360,-531,-1488,-313,-39,477,109,-241
0,297306,408,-1360,-531,-1488,-313,-39,477,109,-241
0,297311,408,-1360,-531,-1488,-313,-39,477,109,-241
0,297316,408,-1360,-531,-1488,-313,-39,477,109,-241
0,297322,410,-1361,-535,-1488,-315,-38,477,109,-241
0,297327,410,-1361,-535,-1488,-315,-38,477,109,-241
0,297333,410,-1361,-535,-1488,-315,-38,477,109,-241
0,297338,408,-1361,-538,-1489,-312,-37,477,109,-241
0,297345,408,-1361,-538,-1489,-312,-37,477,109,-241
0,297350,408,-1361,-538,-1489,-312,-37,477,109,-241
0,297355,408,-1361,-538,-1489,-312,-37,477,109,-241
0,297360,409,-1358,-534,-1484,-308,-45,477,109,-241
0,297366,409,-1358,-534,-1484,-308,-45,477,109,-241
0,297371,409,-1358,-534,-1484,-308,-45,477,109,-241
0,297376,409,-1358,-534,-1484,-308,-45,477,109,-241
0,297381,410,-1359,-533,-1484,-306,-48,477,109,-241
0,297387,410,-1359,-533,-1484,-306,-48,477,109,-241
0,297393,410,-1359,-533,-1484,-306,-48,477,109,-241
0,297398,410,-1359,-533,-1484,-306,-48,477,109,-241
0,297404,411,-1364,-532,-1489,-306,-43,477,109,-241
0,297409,411,-1364,-532,-1489,-306,-43,477,109,-241
0,297414,411,-1364,-532,-1489,-306,-43,477,109,-241
0,297419,410,-1362,-534,-1485,-307,-39,476,108,-252
0,297425,410,-1362,-534,-1485,-307,-39,476,108,-252
0,297432,410,-1362,-534,-1485,-307,-39,476,108,-252
0,297437,410,-1362,-534,-1485,-307,-39,476,108,-252
0,297442,410,-1361,-534,-1480,-305,-49,476,108,-252
0,297447,410,-1361,-534,-1480,-305,-49,476,108,-252
0,297452,410,-1361,-534,-1480,-305,-49,476,108,-252
0,297457,410,-1361,-534,-1480,-305,-49,476,108,-252
0,297463,409,-1357,-536,-1488,-307,-42,476,108,-252
0,297468,409,-1357,-536,-1488,-307,-42,476,108,-252
0,297475,409,-1357,-536,-1488,-307,-42,476,108,-252
0,297479,410,-1361,-536,-1484,-307,-45,476,108,-252
0,297485,410,-1361,-536,-1484,-307,-45,476,108,-252
0,297490,410,-1361,-536,-1484,-307,-45,476,108,-252
0,297496,410,-1361,-536,-1484,-307,-45,476,108,-252
0,297502,412,-1362,-539,-1483,-310,-35,476,108,-252
0,297507,412,-1362,-539,-1483,-310,-35,476,108,-252
0,297512,412,-1362,-539,-1483,-310,-35,476,108,-252
0,297519,412,-1362,-539,-1483,-310,-35,476,108,-252
0,297524,410,-1360,-537,-1481,-309,-39,476,108,-252
0,297529,410,-1360,-537,-1481,-309,-39,476,108,-252
0,297535,410,-1360,-537,-1481,-309,-39,476,108,-252
0,297540,412,-1360,-531,-1486,-306,-39,470,110,-248
0,297545,412,-1360,-531,-1486,-306,-39,470,110,-248
0,297551,412,-1360,-531,-1486,-306,-39,470,110,-248
0,297556,412,-1360,-531,-1486,-306,-39,470,110,-248
0,297562,411,-1359,-531,-1486,-303,-40,470,110,-248
0,297567,411,-1359,-531,-1486,-303,-40,470,110,-248
0,297573,411,-1359,-531,-1486,-303,-40,470,110,-248
0,297578,411,-1359,-531,-1486,-303,-40,470,110,-248
0,297583,411,-1359,-531,-1486,-303,-40,470,110,-248
0,297588,411,-1359,-531,-1486,-303,-40,470,110,-248
0,297594,411,-1359,-531,-1486,-303,-40,470,110,-248
0,297601,411,-1359,-536,-1488,-314,-44,470,110,-248
0,297606,411,-1359,-536,-1488,-314,-44,470,110,-248
0,297611,411,-1359,-536,-1488,-314,-44,470,110,-248
0,297617,411,-1359,-536,-1488,-314,-44,470,110,-248
0,297622,409,-1364,-536,-1481,-308,-41,470,110,-248
0,297628,409,-1364,-536,-1481,-308,-41,470,110,-248
0,297634,409,-1364,-536,-1481,-308,-41,470,110,-248
0,297639,409,-1364,-537,-1480,-309,-38,470,110,-248
0,297646,409,-1364,-537,-1480,-309,-38,470,110,-248
0,297651,409,-1364,-537,-1480,-309,-38,470,110,-248
0,297657,409,-1364,-537,-1480,-309,-38,470,110,-248
0,297662,409,-1360,-534,-1481,-318,-40,478,108,-246
0,297668,409,-1360,-534,-1481,-318,-40,478,108,-246
0,297674,409,-1360,-534,-1481,-318,-40,478,108,-246
0,297679,410,-1361,-537,-1481,-308,-37,478,108,-246
0,297684,410,-1361,-537,-1481,-308,-37,478,108,-246
0,297690,410,-1361,-537,-1481,-308,-37,478,108,-246
0,297694,410,-1361,-537,-1481,-308,-37,478,108,-246
0,297700,410,-1363,-539,-1484,-308,-48,478,108,-246
0,297705,410,-1363,-539,-1484,-308,-48,478,108,-246
0,297710,410,-1363,-539,-1484,-308,-48,478,108,-246
0,297715,410,-1363,-539,-1484,-308,-48,478,108,-246
0,297720,413,-1360,-533,-1484,-308,-46,478,108,-246
0,297726,413,-1360,-533,-1484,-308,-46,478,108,-246
0,297732,413,-1360,-533,-1484,-308,-46,478,108,-246
0,297738,413,-1360,-533,-1484,-308,-46,478,108,-246
0,297743,413,-1365,-537,-1484,-310,-43,478,108,-246
0,297748,413,-1365,-537,-1484,-310,-43,478,108,-246
0,297753,413,-1365,-537,-1484,-310,-43,478,108,-246
0,297759,407,-1361,-532,-1486,-313,-47,478,108,-246
0,297764,407,-1361,-532,-1486,-313,-47,478,108,-246
0,297769,407,-1361,-532,-1486,-313,-47,478,108,-246
0,297775,407,-1361,-532,-1486,-313,-47,478,108,-246
0,297781,408,-1360,-529,-1485,-312,-41,469,107,-249
0,297786,408,-1360,-529,-1485,-312,-41,469,107,-249
0,297792,408,-1360,-529,-1485,-312,-41,469,107,-249
0,297797,408,-1360,-529,-1485,-312,-41,469,107,-249
0,297803,410,-1363,-530,-1489,-315,-46,469,107,-249
0,297808,410,-1363,-530,-1489,-315,-46,469,107,-249
0,297814,410,-1363,-530,-1489,-315,-46,469,107,-249
0,297820,409,-1362,-530,-1485,-311,-43,469,107,-249
0,297825,409,-1362,-530,-1485,-311,-43,469,107,-249
0,297830,409,-1362,-530,-1485,-311,-43,469,107,-249
0,297836,409,-1362,-530,-1485,-311,-43,469,107,-249
0,297841,407,-1363,-532,-1481,-305,-44,469,107,-249
0,297847,407,-1363,-532,-1481,-305,-44,469,107,-249
0,297852,407,-1363,-532,-1481,-305,-44,469,107,-249
0,297859,407,-1363,-532,-1481,-305,-44,469,107,-249
0,297864,410,-1362,-536,-1484,-320,-44,469,107,-249
0,297870,410,-1362,-536,-1484,-320,-44,469,107,-249
0,297875,410,-1362,-536,-1484,-320,-44,469,107,-249
0,297880,411,-1361,-536,-1493,-311,-43,469,107,-249
0,297886,411,-1361,-536,-1493,-311,-43,469,107,-249
0,297891,411,-1361,-536,-1493,-311,-43,469,107,-249
0,297897,411,-1361,-536,-1493,-311,-43,469,107,-249
0,297903,412,-1361,-534,-1491,-313,-39,469,107,-249
0,297909,412,-1361,-534,-1491,-313,-39,469,107,-249
0,297914,412,-1361,-534,-1491,-313,-39,469,107,-249
0,297919,408,-1361,-530,-1486,-308,-44,469,101,-249
0,297925,408,-1361,-530,-1486,-308,-44,469,101,-249
0,297930,408,-1361,-530,-1486,-308,-44,469,101,-249
0,297935,408,-1361,-530,-1486,-308,-44,469,101,-249
0,297940,409,-1361,-530,-1491,-308,-44,469,101,-249
0,297946,409,-1361,-530,-1491,-308,-44,469,101,-249
0,297951,409,-1361,-530,-1491,-308,-44,469,101,-249
0,297957,409,-1361,-530,-1491,-308,-44,469,101,-249
0,297962,412,-1360,-532,-1486,-307,-42,469,101,-249
0,297967,412,-1360,-532,-1486,-307,-42,469,101,-249
0,297972,412,-1360,-532,-1486,-307,-42,469,101,-249
0,297978,412,-1360,-532,-1486,-307,-42,469,101,-249
0,297984,412,-1360,-535,-1490,-307,-48,469,101,-249
0,297990,412,-1360,-535,-1490,-307,-48,469,101,-249
0,297995,412,-1360,-535,-1490,-307,-48,469,101,-249
0,298001,408,-1362,-536,-1484,-305,-48,469,101,-249
0,298006,408,-1362,-536,-1484,-305,-48,469,101,-249
0,298012,408,-1362,-536,-1484,-305,-48,469,101,-249
0,298017,408,-1362,-536,-1484,-305,-48,469,101,-249
0,298022,409,-1362,-537,-1483,-312,-41,469,101,-249
0,298029,409,-1362,-537,-1483,-312,-41,469,101,-249
0,298034,409,-1362,-537,-1483,-312,-41,469,101,-249
0,298039,410,-1365,-534,-1484,-310,-43,469,101,-249
0,298044,410,-1365,-534,-1484,-310,-43,478,108,-254
0,298050,410,-1365,-534,-1484,-310,-43,478,108,-254
0,298055,410,-1365,-534,-1484,-310,-43,478,108,-254
0,298060,410,-1362,-531,-1489,-317,-43,478,108,-254
0,298066,410,-1362,-531,-1489,-317,-43,478,108,-254
0,298072,410,-1362,-531,-1489,-317,-43,478,108,-254
0,298078,410,-1362,-531,-1489,-317,-43,478,108,-254
0,298083,411,-1362,-537,-1490,-307,-47,478,108,-254
0,298088,411,-1362,-537,-1490,-307,-47,478,108,-254
0,298093,411,-1362,-537,-1490,-307,-47,478,108,-254
0,298098,411,-1362,-537,-1490,-307,-47,478,108,-254
0,298103,410,-1361,-536,-1489,-302,-44,478,108,-254
0,298109,410,-1361,-536,-1489,-302,-44,478,108,-254
0,298115,410,-1361,-536,-1489,-302,-44,478,108,-254
0,298120,410,-1364,-535,-1485,-311,-49,478,108,-254
0,298126,410,-1364,-535,-1485,-311,-49,478,108,-254
0,298131,410,-1364,-535,-1485,-311,-49,478,108,-254
0,298136,410,-1364,-535,-1485,-311,-49,478,108,-254
0,298142,408,-1361,-536,-1489,-310,-41,478,108,-254
0,298147,408,-1361,-536,-1489,-310,-41,478,108,-254
0,298153,408,-1361,-536,-1489,-310,-41,478,108,-254
0,298159,411,-1362,-533,-1486,-312,-45,478,108,-254
0,298165,411,-1362,-533,-1486,-312,-45,465,107,-251
0,298170,411,-1362,-533,-1486,-312,-45,465,107,-251
0,298176,411,-1362,-533,-1486,-312,-45,465,107,-251
0,298181,410,-1361,-532,-1483,-308,-45,465,107,-251
0,298187,410,-1361,-532,-1483,-308,-45,465,107,-251
0,298192,410,-1361,-532,-1483,-308,-45,465,107,-251
0,298198,410,-1361,-532,-1483,-308,-45,465,107,-251
0,298204,409,-1360,-533,-1491,-309,-41,465,107,-251
0,298210,409,-1360,-533,-1491,-309,-41,465,107,-251
0,298214,409,-1360,-533,-1491,-309,-41,465,107,-251
0,298220,411,-1360,-531,-1488,-309,-42,465,107,-251
0,298225,411,-1360,-531,-1488,-309,-42,465,107,-251
0,298230,411,-1360,-531,-1488,-309,-42,465,107,-251
0,298236,411,-1360,-531,-1488,-309,-42,465,107,-251
0,298242,411,-1363,-535,-1482,-313,-44,465,107,-251
0,298247,411,-1363,-535,-1482,-313,-44,465,107,-251
0,298252,411,-1363,-535,-1482,-313,-44,465,107,-251
0,298258,411,-1363,-535,-1482,-313,-44,465,107,-251
0,298263,412,-1363,-531,-1490,-314,-43,465,107,-251
0,298269,412,-1363,-531,-1490,-314,-43,465,107,-251
0,298274,412,-1363,-531,-1490,-314,-43,465,107,-251
0,298279,411,-1358,-530,-1489,-317,-50,470,102,-256
0,298285,411,-1358,-530,-1489,-317,-50,470,102,-256
0,298291,411,-1358,-530,-1489,-317,-50,470,102,-256
0,298296,411,-1358,-530,-1489,-317,-50,470,102,-256
0,298302,411,-1359,-538,-1487,-314,-45,470,102,-256
0,298307,411,-1359,-538,-1487,-314,-45,470,102,-256
0,298313,411,-1359,-538,-1487,-314,-45,470,102,-256
0,298319,409,-1360,-535,-1491,-308,-44,470,102,-256
0,298324,409,-1360,-535,-1491,-308,-44,470,102,-256
0,298331,409,-1360,-535,-1491,-308,-44,470,102,-256
0,298336,409,-1360,-535,-1491,-308,-44,470,102,-256
0,298341,407,-1364,-536,-1488,-312,-43,470,102,-256
0,298347,407,-1364,-536,-1488,-312,-43,470,102,-256
0,298353,407,-1364,-536,-1488,-312,-43,470,102,-256
0,298358,407,-1364,-536,-1488,-312,-43,470,102,-256
0,298363,409,-1359,-534,-1483,-307,-43,470,102,-256
0,298369,409,-1359,-534,-1483,-307,-43,470,102,-256
0,298375,409,-1359,-534,-1483,-307,-43,470,102,-256
0,298379,410,-1361,-530,-1485,-306,-43,470,102,-256
0,298384,410,-1361,-530,-1485,-306,-43,470,102,-256
0,298390,410,-1361,-530,-1485,-306,-43,470,102,-256
0,298394,410,-1361,-530,-1485,-306,-43,470,102,-256
0,298400,409,-1362,-536,-1486,-308,-41,481,105,-247
0,298405,409,-1362,-536,-1486,-308,-41,481,105,-247
0,298412,409,-1362,-536,-1486,-308,-41,481,105,-247
0,298417,409,-1362,-536,-1486,-308,-41,481,105,-247
0,298423,409,-1361,-533,-1489,-315,-35,481,105,-247
0,298428,409,-1361,-533,-1489,-315,-35,481,105,-247
0,298433,409,-1361,-533,-1489,-315,-35,481,105,-247
0,298439,409,-1361,-531,-1492,-307,-44,481,105,-247
0,298444,409,-1361,-531,-1492,-307,-44,481,105,-247
0,298449,409,-1361,-531,-1492,-307,-44,481,105,-247
0,298455,409,-1361,-531,-1492,-307,-44,481,105,-247
0,298460,409,-1363,-533,-1489,-309,-43,481,105,-247
0,298465,409,-1363,-533,-1489,-309,-43,481,105,-247
0,298471,409,-1363,-533,-1489,-309,-43,481,105,-247
0,298476,409,-1363,-533,-1489,-309,-43,481,105,-247
0,298481,409,-1361,-538,-1482,-304,-46,481,105,-247
0,298487,409,-1361,-538,-1482,-304,-46,481,105,-247
0,298492,409,-1361,-538,-1482,-304,-46,481,105,-247
0,298499,409,-1361,-538,-1482,-304,-46,481,105,-247
0,298504,409,-1361,-531,-1475,-313,-43,481,105,-247
0,298509,409,-1361,-531,-1475,-313,-43,481,105,-247
0,298516,409,-1361,-531,-1475,-313,-43,481,105,-247
0,298521,408,-1359,-530,-1490,-310,-42,481,105,-247
0,298527,408,-1359,-530,-1490,-310,-42,481,105,-247
0,298532,408,-1359,-530,-1490,-310,-42,481,105,-247
0,298537,408,-1359,-530,-1490,-310,-42,481,105,-247
0,298544,408,-1361,-529,-1489,-312,-48,470,100,-260
0,298549,408,-1361,-529,-1489,-312,-48,470,100,-260
0,298554,408,-1361,-529,-1489,-312,-48,470,100,-260
0,298559,412,-1365,-533,-1490,-309,-38,470,100,-260
0,298565,412,-1365,-533,-1490,-309,-38,470,100,-260
0,298570,412,-1365,-533,-1490,-309,-38,470,100,-260
0,298576,412,-1365,-533,-1490,-309,-38,470,100,-260
0,298582,409,-1361,-532,-1494,-306,-43,470,100,-260
0,298587,409,-1361,-532,-1494,-306,-43,470,100,-260
0,298592,409,-1361,-532,-1494,-306,-43,470,100,-260
0,298597,409,-1361,-532,-1494,-306,-43,470,100,-260
0,298602,410,-1361,-535,-1484,-316,-47,470,100,-260
0,298607,410,-1361,-535,-1484,-316,-47,470,100,-260
0,298612,410,-1361,-535,-1484,-316,-47,470,100,-260
0,298617,410,-1361,-535,-1484,-316,-47,470,100,-260
0,298622,408,-1358,-531,-1479,-312,-44,470,100,-260
0,298629,408,-1358,-531,-1479,-312,-44,470,100,-260
0,298634,408,-1358,-531,-1479,-312,-44,470,100,-260
0,298640,409,-1360,-536,-1483,-307,-42,470,100,-260
0,298645,409,-1360,-536,-1483,-307,-42,470,100,-260
0,298650,409,-1360,-536,-1483,-307,-42,470,100,-260
0,298657,409,-1360,-536,-1483,-307,-42,470,100,-260
0,298663,410,-1360,-532,-1488,-306,-43,460,102,-254
0,298669,410,-1360,-532,-1488,-306,-43,460,102,-254
0,298675,410,-1360,-532,-1488,-306,-43,460,102,-254
0,298680,410,-1359,-529,-1491,-312,-36,460,102,-254
0,298685,410,-1359,-529,-1491,-312,-36,460,102,-254
0,298691,410,-1359,-529,-1491,-312,-36,460,102,-254
0,298696,410,-1359,-529,-1491,-312,-36,460,102,-254
0,298702,412,-1360,-534,-1491,-314,-40,460,102,-254
0,298707,412,-1360,-534,-1491,-314,-40,460,102,-254
0,298714,412,-1360,-534,-1491,-314,-40,460,102,-254
0,298719,410,-1363,-533,-1492,-313,-43,460,102,-254
0,298725,410,-1363,-533,-1492,-313,-43,460,102,-254
0,298730,410,-1363,-533,-1492,-313,-43,460,102,-254
0,298736,410,-1363,-533,-1492,-313,-43,460,102,-254
0,298741,408,-1361,-535,-1484,-314,-45,460,102,-254
0,298747,408,-1361,-535,-1484,-314,-45,460,102,-254
0,298753,408,-1361,-535,-1484,-314,-45,460,102,-254
0,298759,408,-1361,-535,-1484,-314,-45,460,102,-254
0,298764,408,-1363,-539,-1488,-313,-44,460,102,-254
0,298769,408,-1363,-539,-1488,-313,-44,460,102,-254
0,298775,408,-1363,-539,-1488,-313,-44,460,102,-254
0,298780,408,-1363,-539,-1488,-313,-44,472,106,-250
0,298785,408,-1363,-539,-1488,-313,-44,472,106,-250
0,298791,408,-1363,-539,-1488,-313,-44,472,106,-250
0,298797,408,-1363,-539,-1488,-313,-44,472,106,-250
0,298802,409,-1360,-534,-1485,-313,-43,472,106,-250
0,298807,409,-1360,-534,-1485,-313,-43,472,106,-250
0,298813,409,-1360,-534,-1485,-313,-43,472,106,-250
0,298818,409,-1360,-534,-1485,-313,-43,472,106,-250
0,298824,411,-1362,-532,-1483,-315,-42,472,106,-250
0,298829,411,-1362,-532,-1483,-315,-42,472,106,-250
0,298835,411,-1362,-532,-1483,-315,-42,472,106,-250
0,298841,411,-1359,-534,-1486,-306,-39,472,106,-250
0,298846,411,-1359,-534,-1486,-306,-39,472,106,-250
0,298851,411,-1359,-534,-1486,-306,-39,472,106,-250
0,298857,411,-1359,-534,-1486,-306,-39,472,106,-250
0,298862,413,-1362,-536,-1489,-309,-41,472,106,-250
0,298868,413,-1362,-536,-1489,-309,-41,472,106,-250
0,298874,413,-1362,-536,-1489,-309,-41,472,106,-250
0,298880,412,-1360,-533,-1485,-311,-44,472,106,-250
0,298885,412,-1360,-533,-1485,-311,-44,472,106,-250
0,298890,412,-1360,-533,-1485,-311,-44,472,106,-250
0,298895,412,-1360,-533,-1485,-311,-44,472,106,-250
0,298901,411,-1361,-535,-1484,-311,-39,482,100,-252
0,298906,411,-1361,-535,-1484,-311,-39,482,100,-252
0,298911,411,-1361,-535,-1484,-311,-39,482,100,-252
0,298916,411,-1361,-535,-1484,-311,-39,482,100,-252
0,298923,410,-1358,-534,-1490,-312,-41,482,100,-252
0,298929,410,-1358,-534,-1490,-312,-41,482,100,-252
0,298934,410,-1358,-534,-1490,-312,-41,482,100,-252
0,298939,410,-1360,-536,-1487,-309,-45,482,100,-252
0,298945,410,-1360,-536,-1487,-309,-45,482,100,-252
0,298950,410,-1360,-536,-1487,-309,-45,482,100,-252
0,298955,410,-1360,-536,-1487,-309,-45,482,100,-252
0,298960,407,-1360,-539,-1492,-318,-38,482,100,-252
0,298967,407,-1360,-539,-1492,-318,-38,482,100,-252
0,298973,407,-1360,-539,-1492,-318,-38,482,100,-252
0,298978,407,-1360,-539,-1492,-318,-38,482,100,-252
0,298983,409,-1357,-533,-1486,-310,-38,482,100,-252
0,298989,409,-1357,-533,-1486,-310,-38,482,100,-252
0,298994,409,-1357,-533,-1486,-310,-38,482,100,-252
0,298999,409,-1358,-537,-1495,-310,-44,482,100,-252
0,299004,409,-1358,-537,-1495,-310,-44,482,100,-252
0,299011,409,-1358,-537,-1495,-310,-44,482,100,-252
0,299016,409,-1358,-537,-1495,-310,-44,482,100,-252
0,299022,408,-1357,-535,-1493,-314,-42,474,106,-246
0,299027,408,-1357,-535,-1493,-314,-42,474,106,-246
0,299032,408,-1357,-535,-1493,-314,-42,474,106,-246
0,299037,408,-1357,-535,-1493,-314,-42,474,106,-246
0,299043,412,-1361,-534,-1490,-309,-45,474,106,-246
0,299048,412,-1361,-534,-1490,-309,-45,474,106,-246
0,299055,412,-1361,-534,-1490,-309,-45,474,106,-246
0,299061,409,-1360,-533,-1490,-306,-41,474,106,-246
0,299066,409,-1360,-533,-1490,-306,-41,474,106,-246
0,299072,409,-1360,-533,-1490,-306,-41,474,106,-246
0,299078,409,-1360,-533,-1490,-306,-41,474,106,-246
0,299084,409,-1361,-532,-1494,-304,-46,474,106,-246
0,299091,409,-1361,-532,-1494,-304,-46,474,106,-246
0,299099,409,-1361,-532,-1494,-304,-46,474,106,-246
0,299105,410,-1360,-533,-1492,-314,-48,474,106,-246
0,299110,410,-1360,-533,-1492,-314,-48,474,106,-246
0,299116,410,-1360,-533,-1492,-314,-48,474,106,-246
0,299121,412,-1362,-534,-1495,-313,-42,474,106,-246
0,299127,412,-1362,-534,-1495,-313,-42,474,106,-246
0,299132,412,-1362,-534,-1495,-313,-42,474,106,-246
0,299139,412,-1362,-534,-1495,-313,-42,474,106,-246
0,299144,409,-1363,-536,-1487,-311,-47,474,106,-246
0,299149,409,-1363,-536,-1487,-311,-47,474,106,-246
0,299155,409,-1363,-536,-1487,-311,-47,474,106,-246
0,299160,410,-1360,-532,-1483,-311,-46,473,105,-253
0,299164,410,-1360,-532,-1483,-311,-46,473,105,-253
0,299169,410,-1360,-532,-1483,-311,-46,473,105,-253
0,299174,410,-1360,-532,-1483,-311,-46,473,105,-253
0,299179,410,-1360,-532,-1483,-311,-46,473,105,-253
0,299184,410,-1361,-535,-1480,-310,-39,473,105,-253
0,299188,410,-1361,-535,-1480,-310,-39,473,105,-253
0,299193,410,-1361,-535,-1480,-310,-39,473,105,-253
0,299197,410,-1361,-535,-1480,-310,-39,473,105,-253
0,299202,409,-1359,-530,-1489,-314,-38,473,105,-253
0,299208,409,-1359,-530,-1489,-314,-38,473,105,-253
0,299212,409,-1359,-530,-1489,-314,-38,473,105,-253
0,299217,409,-1359,-530,-1489,-314,-38,473,105,-253
0,299223,409,-1363,-538,-1496,-315,-50,473,105,-253
0,299229,409,-1363,-538,-1496,-315,-50,473,105,-253
0,299234,409,-1363,-538,-1496,-315,-50,473,105,-253
0,299240,411,-1364,-541,-1478,-311,-42,473,105,-253
0,299245,411,-1364,-541,-1478,-311,-42,473,105,-253
0,299250,411,-1364,-541,-1478,-311,-42,473,105,-253
0,299256,411,-1364,-541,-1478,-311,-42,473,105,-253
0,299261,413,-1361,-536,-1488,-306,-44,473,105,-253
0,299268,413,-1361,-536,-1488,-306,-44,473,105,-253
0,299273,413,-1361,-536,-1488,-306,-44,473,105,-253
0,299279,413,-1361,-536,-1488,-306,-44,473,105,-253
0,299284,411,-1360,-529,-1485,-307,-45,468,118,-250
0,299289,411,-1360,-529,-1485,-307,-45,468,118,-250
0,299294,411,-1360,-529,-1485,-307,-45,468,118,-250
0,299300,409,-1360,-530,-1480,-309,-51,468,118,-250
0,299305,409,-1360,-530,-1480,-309,-51,468,118,-250
0,299311,409,-1360,-530,-1480,-309,-51,468,118,-250
0,299316,409,-1360,-530,-1480,-309,-51,468,118,-250
0,299321,408,-1364,-531,-1485,-311,-48,468,118,-250
0,299326,408,-1364,-531,-1485,-311,-48,468,118,-250
0,299332,408,-1364,-531,-1485,-311,-48,468,118,-250
0,299337,408,-1364,-531,-1485,-311,-48,468,118,-250
0,299343,415,-1363,-532,-1486,-311,-44,468,118,-250
0,299348,415,-1363,-532,-1486,-311,-44,468,118,-250
0,299355,415,-1363,-532,-1486,-311,-44,468,118,-250
0,299360,412,-1360,-533,-1485,-303,-51,468,118,-250
0,299365,412,-1360,-533,-1485,-303,-51,468,118,-250
0,299370,412,-1360,-533,-1485,-303,-51,468,118,-250
0,299375,412,-1360,-533,-1485,-303,-51,468,118,-250
0,299380,412,-1364,-532,-1485,-305,-44,468,118,-250
0,299386,412,-1364,-532,-1485,-305,-44,468,118,-250
0,299392,412,-1364,-532,-1485,-305,-44,468,118,-250
0,299397,412,-1364,-532,-1485,-305,-44,468,118,-250
0,299403,410,-1362,-534,-1483,-304,-38,459,111,-249
0,299408,410,-1362,-534,-1483,-304,-38,459,111,-249
0,299413,410,-1362,-534,-1483,-304,-38,459,111,-249
0,299419,410,-1362,-534,-1483,-304,-38,459,111,-249
0,299424,408,-1360,-535,-1486,-308,-42,459,111,-249
0,299429,408,-1360,-535,-1486,-308,-42,459,111,-249
0,299436,408,-1360,-535,-1486,-308,-42,459,111,-249
0,299442,414,-1362,-535,-1488,-314,-45,459,111,-249
0,299447,414,-1362,-535,-1488,-314,-45,459,111,-249
0,299453,414,-1362,-535,-1488,-314,-45,459,111,-249
0,299458,414,-1362,-535,-1488,-314,-45,459,111,-249
0,299464,410,-1360,-537,-1490,-312,-50,459,111,-249
0,299469,410,-1360,-537,-1490,-312,-50,459,111,-249
0,299474,410,-1360,-537,-1490,-312,-50,459,111,-249
0,299480,410,-1360,-534,-1481,-313,-49,459,111,-249
0,299486,410,-1360,-534,-1481,-313,-49,459,111,-249
0,299491,410,-1360,-534,-1481,-313,-49,459,111,-249
0,299496,410,-1360,-534,-1481,-313,-49,459,111,-249
0,299502,410,-1361,-535,-1491,-308,-52,459,111,-249
0,299507,410,-1361,-535,-1491,-308,-52,459,111,-249
0,299513,410,-1361,-535,-1491,-308,-52,459,111,-249
0,299518,410,-1361,-535,-1491,-308,-52,459,111,-249
0,299525,410,-1362,-536,-1488,-314,-45,463,101,-247
0,299530,410,-1362,-536,-1488,-314,-45,463,101,-247
0,299535,410,-1362,-536,-1488,-314,-45,463,101,-247
0,299540,410,-1362,-533,-1481,-312,-45,463,101,-247
0,299546,410,-1362,-533,-1481,-312,-45,463,101,-247
0,299550,410,-1362,-533,-1481,-312,-45,463,101,-247
0,299556,410,-1362,-533,-1481,-312,-45,463,101,-247
0,299561,411,-1361,-533,-1486,-307,-44,463,101,-247
0,299567,411,-1361,-533,-1486,-307,-44,463,101,-247
0,299572,411,-1361,-533,-1486,-307,-44,463,101,-247
0,299578,411,-1361,-533,-1486,-307,-44,463,101,-247
0,299584,409,-1362,-538,-1487,-309,-44,463,101,-247
0,299589,409,-1362,-538,-1487,-309,-44,463,101,-247
0,299594,409,-1362,-538,-1487,-309,-44,463,101,-247
0,299600,408,-1363,-534,-1482,-310,-46,463,101,-247
0,299606,408,-1363,-534,-1482,-310,-46,463,101,-247
0,299611,408,-1363,-534,-1482,-310,-46,463,101,-247
0,299617,408,-1363,-534,-1482,-310,-46,463,101,-247
0,299622,410,-1365,-536,-1485,-312,-43,463,101,-247
0,299627,410,-1365,-536,-1485,-312,-43,463,101,-247
0,299633,410,-1365,-536,-1485,-312,-43,463,101,-247
0,299639,410,-1365,-536,-1485,-312,-43,463,101,-247
0,299644,412,-1361,-531,-1486,-312,-37,466,108,-254
0,299651,412,-1361,-531,-1486,-312,-37,466,108,-254
0,299656,412,-1361,-531,-1486,-312,-37,466,108,-254
0,299662,409,-1362,-533,-1490,-308,-45,466,108,-254
0,299667,409,-1362,-533,-1490,-308,-45,466,108,-254
0,299672,409,-1362,-533,-1490,-308,-45,466,108,-254
0,299678,409,-1362,-533,-1490,-308,-45,466,108,-254
0,299683,410,-1358,-535,-1486,-311,-48,466,108,-254
0,299688,410,-1358,-535,-1486,-311,-48,466,108,-254
0,299695,410,-1358,-535,-1486,-311,-48,466,108,-254
0,299700,410,-1358,-535,-1486,-311,-48,466,108,-254
0,299705,412,-1362,-535,-1486,-305,-46,466,108,-254
0,299710,412,-1362,-535,-1486,-305,-46,466,108,-254
0,299716,412,-1362,-535,-1486,-305,-46,466,108,-254
0,299721,410,-1362,-541,-1489,-309,-43,466,108,-254
0,299726,410,-1362,-541,-1489,-309,-43,466,108,-254
0,299731,410,-1362,-541,-1489,-309,-43,466,108,-254
0,299737,410,-1362,-541,-1489,-309,-43,466,108,-254
0,299743,409,-1362,-535,-1479,-303,-40,466,108,-254
0,299748,409,-1362,-535,-1479,-303,-40,466,108,-254
0,299754,409,-1362,-535,-1479,-303,-40,466,108,-254
0,299759,409,-1362,-535,-1479,-303,-40,466,108,-254
0,299765,411,-1360,-534,-1487,-306,-39,466,108,-254
0,299770,411,-1360,-534,-1487,-306,-39,466,108,-254
0,299776,411,-1360,-534,-1487,-306,-39,466,108,-254
0,299781,408,-1358,-530,-1488,-305,-50,471,105,-251
0,299787,408,-1358,-530,-1488,-305,-50,471,105,-251
0,299792,408,-1358,-530,-1488,-305,-50,471,105,-251
0,299797,408,-1358,-530,-1488,-305,-50,471,105,-251
0,299803,411,-1360,-531,-1489,-313,-37,471,105,-251
0,299808,411,-1360,-531,-1489,-313,-37,471,105,-251
0,299814,411,-1360,-531,-1489,-313,-37,471,105,-251
0,299820,411,-1360,-531,-1489,-313,-37,471,105,-251
0,299826,412,-1360,-533,-1491,-313,-40,471,105,-251
0,299831,412,-1360,-533,-1491,-313,-40,471,105,-251
0,299836,412,-1360,-533,-1491,-313,-40,471,105,-251
0,299841,411,-1361,-536,-1493,-307,-42,471,105,-251
0,299847,411,-1361,-536,-1493,-307,-42,471,105,-251
0,299852,411,-1361,-536,-1493,-307,-42,471,105,-251
0,299858,411,-1361,-536,-1493,-307,-42,471,105,-251
0,299864,412,-1362,-535,-1487,-306,-42,471,105,-251
0,299869,412,-1362,-535,-1487,-306,-42,471,105,-251
0,299875,412,-1362,-535,-1487,-306,-42,471,105,-251
0,299880,414,-1362,-533,-1488,-315,-39,471,105,-251
0,299885,414,-1362,-533,-1488,-315,-39,471,105,-251
0,299890,414,-1362,-533,-1488,-315,-39,471,105,-251
0,299896,414,-1362,-533,-1488,-315,-39,471,105,-251
0,299901,412,-1361,-533,-1488,-309,-37,471,113,-249
0,299908,412,-1361,-533,-1488,-309,-37,471,113,-249
0,299913,412,-1361,-533,-1488,-309,-37,471,113,-249
0,299919,412,-1361,-533,-1488,-309,-37,471,113,-249
0,299924,412,-1363,-529,-1489,-308,-37,471,113,-249
0,299930,412,-1363,-529,-1489,-308,-37,471,113,-249
0,299935,412,-1363,-529,-1489,-308,-37,471,113,-249
0,299940,412,-1361,-534,-1484,-306,-42,471,113,-249
0,299945,412,-1361,-534,-1484,-306,-42,471,113,-249
0,299952,412,-1361,-534,-1484,-306,-42,471,113,-249
0,299957,412,-1361,-534,-1484,-306,-42,471,113,-249
0,299963,408,-1360,-534,-1495,-315,-46,471,113,-249
0,299968,408,-1360,-534,-1495,-315,-46,471,113,-249
0,299974,408,-1360,-534,-1495,-315,-46,471,113,-249
0,299979,408,-1360,-534,-1495,-315,-46,471,113,-249
0,299985,408,-1360,-534,-1495,-315,-46,471,113,-249
0,299991,408,-1360,-534,-1495,-315,-46,471,113,-249
0,299997,408,-1360,-534,-1495,-315,-46,471,113,-249
0,300002,409,-1362,-533,-1487,-311,-40,471,113,-249
0,300007,409,-1362,-533,-1487,-311,-40,471,113,-249
0,300012,409,-1362,-533,-1487,-311,-40,471,113,-249
0,300018,409,-1362,-533,-1487,-311,-40,471,113,-249
0,300024,411,-1363,-536,-1483,-309,-36,469,105,-247
0,300029,411,-1363,-536,-1483,-309,-36,469,105,-247
0,300036,411,-1363,-536,-1483,-309,-36,469,105,-247
0,300041,412,-1363,-529,-1487,-312,-35,469,105,-247
0,300047,412,-1363,-529,-1487,-312,-35,469,105,-247
0,300052,412,-1363,-529,-1487,-312,-35,469,105,-247
0,300058,412,-1363,-529,-1487,-312,-35,469,105,-247
0,300063,410,-1363,-531,-1490,-309,-47,469,105,-247
0,300069,410,-1363,-531,-1490,-309,-47,469,105,-247
0,300075,410,-1363,-531,-1490,-309,-47,469,105,-247
0,300080,408,-1362,-529,-1488,-308,-42,469,105,-247
0,300086,408,-1362,-529,-1488,-308,-42,469,105,-247
0,300091,408,-1362,-529,-1488,-308,-42,469,105,-247
0,300096,408,-1362,-529,-1488,-308,-42,469,105,-247
0,300101,411,-1360,-540,-1488,-311,-43,469,105,-247
0,300106,411,-1360,-540,-1488,-311,-43,469,105,-247
0,300112,411,-1360,-540,-1488,-311,-43,469,105,-247
0,300118,411,-1360,-540,-1488,-311,-43,469,105,-247
0,300124,408,-1361,-536,-1483,-318,-48,469,105,-247
0,300129,408,-1361,-536,-1483,-318,-48,469,105,-247
0,300135,408,-1361,-536,-1483,-318,-48,469,105,-247
0,300140,413,-1363,-534,-1486,-315,-41,473,107,-251
0,300145,413,-1363,-534,-1486,-315,-41,473,107,-251
0,300151,413,-1363,-534,-1486,-315,-41,473,107,-251
0,300156,413,-1363,-534,-1486,-315,-41,473,107,-251
0,300162,410,-1363,-530,-1489,-309,-48,473,107,-251
0,300168,410,-1363,-530,-1489,-309,-48,473,107,-251
0,300174,410,-1363,-530,-1489,-309,-48,473,107,-251
0,300179,410,-1363,-530,-1489,-309,-48,473,107,-251
0,300184,410,-1362,-532,-1484,-308,-49,473,107,-251
0,300189,410,-1362,-532,-1484,-308,-49,473,107,-251
0,300195,410,-1362,-532,-1484,-308,-49,473,107,-251
0,300200,407,-1360,-533,-1492,-310,-41,473,107,-251
0,300207,407,-1360,-533,-1492,-310,-41,473,107,-251
0,300212,407,-1360,-533,-1492,-310,-41,473,107,-251
0,300218,407,-1360,-533,-1492,-310,-41,473,107,-251
0,300223,410,-1361,-534,-1493,-313,-41,473,107,-251
0,300229,410,-1361,-534,-1493,-313,-41,473,107,-251
0,300233,410,-1361,-534,-1493,-313,-41,473,107,-251
0,300239,410,-1361,-534,-1493,-313,-41,473,107,-251
0,300244,411,-1362,-532,-1489,-309,-39,473,107,-251
0,300251,411,-1362,-532,-1489,-309,-39,473,107,-251
0,300256,411,-1362,-532,-1489,-309,-39,473,107,-251
0,300261,411,-1360,-535,-1489,-304,-45,472,98,-248
0,300266,411,-1360,-535,-1489,-304,-45,472,98,-248
0,300272,411,-1360,-535,-1489,-304,-45,472,98,-248
0,300277,411,-1360,-535,-1489,-304,-45,472,98,-248
0,300283,410,-1359,-535,-1490,-305,-42,472,98,-248
0,300289,410,-1359,-535,-1490,-305,-42,472,98,-248
0,300295,410,-1359,-535,-1490,-305,-42,472,98,-248
0,300301,411,-1363,-534,-1492,-308,-37,472,98,-248
0,300306,411,-1363,-534,-1492,-308,-37,472,98,-248
0,300312,411,-1363,-534,-1492,-308,-37,472,98,-248
0,300317,411,-1363,-534,-1492,-308,-37,472,98,-248
0,300323,408,-1362,-534,-1496,-311,-46,472,98,-248
0,300328,408,-1362,-534,-1496,-311,-46,472,98,-248
0,300335,408,-1362,-534,-1496,-311,-46,472,98,-248
0,300341,411,-1360,-537,-1488,-307,-49,472,98,-248
0,300346,411,-1360,-537,-1488,-307,-49,472,98,-248
0,300351,411,-1360,-537,-1488,-307,-49,472,98,-248
0,300357,411,-1360,-537,-1488,-307,-49,472,98,-248
0,300363,409,-1361,-532,-1486,-310,-44,472,98,-248
0,300368,409,-1361,-532,-1486,-310,-44,472,98,-248
0,300375,409,-1361,-532,-1486,-310,-44,472,98,-248
0,300380,409,-1361,-532,-1486,-310,-44,472,98,-248
0,300385,410,-1359,-534,-1482,-310,-41,472,98,-248
0,300390,410,-1359,-534,-1482,-310,-41,472,98,-248
0,300396,410,-1359,-534,-1482,-310,-41,472,98,-248
0,300401,413,-1363,-532,-1484,-303,-41,471,105,-245
0,300407,413,-1363,-532,-1484,-303,-41,471,105,-245
0,300413,413,-1363,-532,-1484,-303,-41,471,105,-245
0,300419,413,-1363,-532,-1484,-303,-41,471,105,-245
0,300424,411,-1362,-533,-1488,-308,-48,471,105,-245
0,300430,411,-1362,-533,-1488,-308,-48,471,105,-245
0,300435,411,-1362,-533,-1488,-308,-48,471,105,-245
0,300440,410,-1360,-530,-1477,-312,-42,471,105,-245
0,300446,410,-1360,-530,-1477,-312,-42,471,105,-245
0,300451,410,-1360,-530,-1477,-312,-42,471,105,-245
0,300456,410,-1360,-530,-1477,-312,-42,471,105,-245
0,300463,413,-1361,-530,-1477,-316,-46,471,105,-245
0,300468,413,-1361,-530,-1477,-316,-46,471,105,-245
0,300473,413,-1361,-530,-1477,-316,-46,471,105,-245
0,300478,413,-1361,-530,-1477,-316,-46,471,105,-245
0,300484,409,-1360,-537,-1491,-314,-36,471,105,-245
0,300489,409,-1360,-537,-1491,-314,-36,471,105,-245
0,300495,409,-1360,-537,-1491,-314,-36,471,105,-245
0,300500,412,-1362,-539,-1490,-307,-42,471,105,-245
0,300507,412,-1362,-539,-1490,-307,-42,471,105,-245
0,300512,412,-1362,-539,-1490,-307,-42,471,105,-245
0,300517,412,-1362,-539,-1490,-307,-42,471,105,-245
0,300523,408,-1362,-534,-1486,-311,-46,472,108,-254
0,300528,408,-1362,-534,-1486,-311,-46,472,108,-254
0,300534,408,-1362,-534,-1486,-311,-46,472,108,-254
0,300539,409,-1362,-531,-1485,-315,-42,472,108,-254
0,300546,409,-1362,-531,-1485,-315,-42,472,108,-254
0,300551,409,-1362,-531,-1485,-315,-42,472,108,-254
0,300556,409,-1362,-531,-1485,-315,-42,472,108,-254
0,300562,410,-1362,-534,-1485,-316,-56,472,108,-254
0,300567,410,-1362,-534,-1485,-316,-56,472,108,-254
0,300573,410,-1362,-534,-1485,-316,-56,472,108,-254
0,300578,410,-1362,-534,-1485,-316,-56,472,108,-254
0,300584,412,-1358,-533,-1486,-317,-45,472,108,-254
0,300590,412,-1358,-533,-1486,-317,-45,472,108,-254
0,300596,412,-1358,-533,-1486,-317,-45,472,108,-254
0,300603,410,-1360,-537,-1494,-310,-43,472,108,-254
0,300610,410,-1360,-537,-1494,-310,-43,472,108,-254
0,300617,410,-1360,-537,-1494,-310,-43,472,108,-254
0,300623,410,-1362,-535,-1484,-307,-42,472,108,-254
0,300628,410,-1362,-535,-1484,-307,-42,472,108,-254
0,300635,410,-1362,-535,-1484,-307,-42,472,108,-254
0,300641,410,-1361,-531,-1485,-307,-50,471,99,-243
0,300646,410,-1361,-531,-1485,-307,-50,471,99,-243
0,300652,410,-1361,-531,-1485,-307,-50,471,99,-243
0,300657,410,-1361,-531,-1485,-307,-50,471,99,-243
0,300662,411,-1358,-533,-1490,-306,-38,471,99,-243
0,300667,411,-1358,-533,-1490,-306,-38,471,99,-243
0,300673,411,-1358,-533,-1490,-306,-38,471,99,-243
0,300678,411,-1358,-533,-1490,-306,-38,471,99,-243
0,300683,414,-1362,-529,-1490,-307,-43,471,99,-243
0,300688,414,-1362,-529,-1490,-307,-43,471,99,-243
0,300694,414,-1362,-529,-1490,-307,-43,471,99,-243
0,300699,414,-1362,-529,-1490,-307,-43,471,99,-243
0,300704,411,-1360,-534,-1486,-309,-36,471,99,-243
0,300710,411,-1360,-534,-1486,-309,-36,471,99,-243
0,300716,411,-1360,-534,-1486,-309,-36,471,99,-243
0,300722,410,-1362,-535,-1486,-314,-37,471,99,-243
0,300727,410,-1362,-535,-1486,-314,-37,471,99,-243
0,300732,410,-1362,-535,-1486,-314,-37,471,99,-243
0,300737,410,-1362,-535,-1486,-314,-37,471,99,-243
0,300743,408,-1360,-537,-1489,-309,-43,471,99,-243
0,300748,408,-1360,-537,-1489,-309,-43,471,99,-243
0,300753,408,-1360,-537,-1489,-309,-43,471,99,-243
0,300760,408,-1360,-537,-1489,-309,-43,471,99,-243
0,300765,413,-1361,-535,-1484,-317,-39,466,112,-246
0,300771,413,-1361,-535,-1484,-317,-39,466,112,-246
0,300776,413,-1361,-535,-1484,-317,-39,466,112,-246
0,300782,410,-1361,-531,-1486,-317,-44,466,112,-246
0,300787,410,-1361,-531,-1486,-317,-44,466,112,-246
0,300793,410,-1361,-531,-1486,-317,-44,466,112,-246
0,300798,410,-1361,-531,-1486,-317,-44,466,112,-246
0,300805,409,-1363,-540,-1483,-316,-46,466,112,-246
0,300810,409,-1363,-540,-1483,-316,-46,466,112,-246
0,300815,409,-1363,-540,-1483,-316,-46,466,112,-246
0,300820,411,-1360,-534,-1485,-318,-44,466,112,-246
0,300826,411,-1360,-534,-1485,-318,-44,466,112,-246
0,300831,411,-1360,-534,-1485,-318,-44,466,112,-246
0,300837,411,-1360,-534,-1485,-318,-44,466,112,-246
0,300843,409,-1358,-533,-1488,-313,-41,466,112,-246
0,300849,409,-1358,-533,-1488,-313,-41,466,112,-246
0,300854,409,-1358,-533,-1488,-313,-41,466,112,-246
0,300859,409,-1358,-533,-1488,-313,-41,466,112,-246
0,300865,410,-1359,-534,-1490,-313,-43,466,112,-246
0,300870,410,-1359,-534,-1490,-313,-43,466,112,-246
0,300876,410,-1359,-534,-1490,-313,-43,466,112,-246
0,300881,410,-1364,-533,-1492,-308,-41,466,112,-246
0,300888,410,-1364,-533,-1492,-308,-41,466,112,-246
0,300893,410,-1364,-533,-1492,-308,-41,466,112,-246
0,300898,410,-1364,-533,-1492,-308,-41,466,112,-246
0,300903,411,-1363,-531,-1485,-306,-41,474,104,-256
0,300909,411,-1363,-531,-1485,-306,-41,474,104,-256
0,300914,411,-1363,-531,-1485,-306,-41,474,104,-256
0,300920,412,-1360,-531,-1487,-310,-46,474,104,-256
0,300924,412,-1360,-531,-1487,-310,-46,474,104,-256
0,300931,412,-1360,-531,-1487,-310,-46,474,104,-256
0,300936,412,-1360,-531,-1487,-310,-46,474,104,-256
0,300942,410,-1361,-534,-1485,-311,-41,474,104,-256
0,300947,410,-1361,-534,-1485,-311,-41,474,104,-256
0,300953,410,-1361,-534,-1485,-311,-41,474,104,-256
0,300958,410,-1361,-534,-1485,-311,-41,474,104,-256
0,300964,412,-1363,-537,-1484,-308,-48,474,104,-256
0,300968,412,-1363,-537,-1484,-308,-48,474,104,-256
0,300975,412,-1363,-537,-1484,-308,-48,474,104,-256
0,300981,411,-1361,-534,-1487,-313,-39,474,104,-256
0,300986,411,-1361,-534,-1487,-313,-39,474,104,-256
0,300991,411,-1361,-534,-1487,-313,-39,474,104,-256
0,300997,411,-1361,-534,-1487,-313,-39,474,104,-256
0,301002,410,-1363,-537,-1479,-310,-38,474,104,-256
0,301008,410,-1363,-537,-1479,-310,-38,474,104,-256
0,301012,410,-1363,-537,-1479,-310,-38,474,104,-256
0,301019,410,-1363,-537,-1479,-310,-38,474,104,-256
0,301024,408,-1362,-535,-1487,-316,-46,475,105,-255
0,301030,408,-1362,-535,-1487,-316,-46,475,105,-255
0,301035,408,-1362,-535,-1487,-316,-46,475,105,-255
0,301040,409,-1360,-537,-1479,-314,-46,475,105,-255
0,301045,409,-1360,-537,-1479,-314,-46,475,105,-255
0,301051,409,-1360,-537,-1479,-314,-46,475,105,-255
0,301057,409,-1360,-537,-1479,-314,-46,475,105,-255
0,301063,412,-1361,-533,-1483,-301,-45,475,105,-255
0,301068,412,-1361,-533,-1483,-301,-45,475,105,-255
0,301074,412,-1361,-533,-1483,-301,-45,475,105,-255
0,301079,412,-1361,-533,-1483,-301,-45,475,105,-255
0,301084,411,-1359,-538,-1489,-304,-48,475,105,-255
0,301090,411,-1359,-538,-1489,-304,-48,475,105,-255
0,301095,411,-1359,-538,-1489,-304,-48,475,105,-255
0,301101,409,-1362,-538,-1482,-304,-42,475,105,-255
0,301106,409,-1362,-538,-1482,-304,-42,475,105,-255
0,301111,409,-1362,-538,-1482,-304,-42,475,105,-255
0,301116,409,-1362,-538,-1482,-304,-42,475,105,-255
0,301122,409,-1364,-533,-1483,-301,-43,475,105,-255
0,301127,409,-1364,-533,-1483,-301,-43,475,105,-255
0,301133,409,-1364,-533,-1483,-301,-43,475,105,-255
0,301138,409,-1364,-533,-1483,-301,-43,475,105,-255
0,301145,412,-1363,-529,-1486,-304,-57,466,112,-244
0,301150,412,-1363,-529,-1486,-304,-57,466,112,-244
0,301156,412,-1363,-529,-1486,-304,-57,466,112,-244
0,301162,411,-1365,-530,-1488,-310,-46,466,112,-244
0,301166,411,-1365,-530,-1488,-310,-46,466,112,-244
0,301172,411,-1365,-530,-1488,-310,-46,466,112,-244
0,301177,411,-1365,-530,-1488,-310,-46,466,112,-244
0,301184,408,-1360,-530,-1487,-308,-47,466,112,-244
0,301189,408,-1360,-530,-1487,-308,-47,466,112,-244
0,301194,408,-1360,-530,-1487,-308,-47,466,112,-244
0,301200,408,-1360,-530,-1487,-308,-47,466,112,-244
0,301205,411,-1363,-534,-1495,-311,-44,466,112,-244
0,301210,411,-1363,-534,-1495,-311,-44,466,112,-244
0,301215,411,-1363,-534,-1495,-311,-44,466,112,-244
0,301221,411,-1361,-534,-1490,-310,-45,466,112,-244
0,301227,411,-1361,-534,-1490,-310,-45,466,112,-244
0,301232,411,-1361,-534,-1490,-310,-45,466,112,-244
0,301238,411,-1361,-534,-1490,-310,-45,466,112,-244
0,301243,410,-1361,-540,-1487,-306,-47,466,112,-244
0,301248,410,-1361,-540,-1487,-306,-47,466,112,-244
0,301254,410,-1361,-540,-1487,-306,-47,466,112,-244
0,301259,410,-1361,-540,-1487,-306,-47,466,112,-244
0,301265,411,-1360,-535,-1485,-305,-49,471,107,-257
0,301271,411,-1360,-535,-1485,-305,-49,471,107,-257
0,301276,411,-1360,-535,-1485,-305,-49,471,107,-257
0,301283,410,-1364,-534,-1484,-304,-49,471,107,-257
0,301287,410,-1364,-534,-1484,-304,-49,471,107,-257
0,301293,410,-1364,-534,-1484,-304,-49,471,107,-257
0,301298,410,-1364,-534,-1484,-304,-49,471,107,-257
0,301304,411,-1361,-533,-1484,-301,-44,471,107,-257
0,301309,411,-1361,-533,-1484,-301,-44,471,107,-257
0,301315,411,-1361,-533,-1484,-301,-44,471,107,-257
0,301320,409,-1360,-534,-1487,-308,-45,471,107,-257
0,301326,409,-1360,-534,-1487,-308,-45,471,107,-257
0,301331,409,-1360,-534,-1487,-308,-45,471,107,-257
0,301336,409,-1360,-534,-1487,-308,-45,471,107,-257
0,301341,409,-1360,-535,-1490,-308,-38,471,107,-257
0,301346,409,-1360,-535,-1490,-308,-38,471,107,-257
0,301352,409,-1360,-535,-1490,-308,-38,471,107,-257
0,301358,409,-1360,-535,-1490,-308,-38,471,107,-257
0,301363,415,-1361,-534,-1485,-306,-41,471,107,-257
0,301369,415,-1361,-534,-1485,-306,-41,471,107,-257
0,301375,415,-1361,-534,-1485,-306,-41,471,107,-257
0,301379,415,-1361,-534,-1485,-306,-41,471,107,-257
0,301385,409,-1362,-533,-1486,-310,-46,463,105,-251
0,301390,409,-1362,-533,-1486,-310,-46,463,105,-251
0,301396,409,-1362,-533,-1486,-310,-46,463,105,-251
0,301402,412,-1360,-527,-1492,-311,-43,463,105,-251
0,301408,412,-1360,-527,-1492,-311,-43,463,105,-251
0,301413,412,-1360,-527,-1492,-311,-43,463,105,-251
0,301418,412,-1360,-527,-1492,-311,-43,463,105,-251
0,301424,413,-1362,-529,-1491,-304,-36,463,105,-251
0,301429,413,-1362,-529,-1491,-304,-36,463,105,-251
0,301434,413,-1362,-529,-1491,-304,-36,463,105,-251
0,301440,413,-1362,-529,-1491,-304,-36,463,105,-251
0,301446,411,-1360,-534,-1489,-311,-49,463,105,-251
0,301451,411,-1360,-534,-1489,-311,-49,463,105,-251
0,301456,411,-1360,-534,-1489,-311,-49,463,105,-251
0,301462,408,-1361,-541,-1487,-318,-47,463,105,-251
0,301467,408,-1361,-541,-1487,-318,-47,463,105,-251
0,301473,408,-1361,-541,-1487,-318,-47,463,105,-251
0,301478,408,-1361,-541,-1487,-318,-47,463,105,-251
0,301484,410,-1362,-534,-1487,-312,-46,463,105,-251
0,301490,410,-1362,-534,-1487,-312,-46,463,105,-251
0,301495,410,-1362,-534,-1487,-312,-46,463,105,-251
0,301500,410,-1362,-534,-1487,-312,-46,463,105,-251
0,301505,410,-1362,-536,-1494,-312,-40,463,105,-251
0,301510,410,-1362,-536,-1494,-312,-40,463,105,-251
0,301516,410,-1362,-536,-1494,-312,-40,463,105,-251
0,301521,410,-1363,-530,-1491,-312,-43,464,108,-256
0,301528,410,-1363,-530,-1491,-312,-43,464,108,-256
0,301533,410,-1363,-530,-1491,-312,-43,464,108,-256
0,301539,410,-1363,-530,-1491,-312,-43,464,108,-256
0,301544,410,-1362,-530,-1485,-313,-42,464,108,-256
0,301550,410,-1362,-530,-1485,-313,-42,464,108,-256
0,301555,410,-1362,-530,-1485,-313,-42,464,108,-256
0,301560,411,-1362,-535,-1486,-306,-48,464,108,-256
0,301566,411,-1362,-535,-1486,-306,-48,464,108,-256
0,301572,411,-1362,-535,-1486,-306,-48,464,108,-256
0,301577,411,-1362,-535,-1486,-306,-48,464,108,-256
0,301583,411,-1359,-532,-1491,-311,-43,464,108,-256
0,301588,411,-1359,-532,-1491,-311,-43,464,108,-256
0,301593,411,-1359,-532,-1491,-311,-43,464,108,-256
0,301598,411,-1359,-532,-1491,-311,-43,464,108,-256
0,301604,412,-1361,-532,-1486,-309,-38,464,108,-256
0,301609,412,-1361,-532,-1486,-309,-38,464,108,-256
0,301615,412,-1361,-532,-1486,-309,-38,464,108,-256
0,301621,411,-1363,-535,-1489,-308,-43,464,108,-256
0,301626,411,-1363,-535,-1489,-308,-43,464,108,-256
0,301632,411,-1363,-535,-1489,-308,-43,464,108,-256
0,301637,411,-1363,-535,-1489,-308,-43,464,108,-256
0,301642,405,-1362,-530,-1488,-312,-35,466,100,-256
0,301648,405,-1362,-530,-1488,-312,-35,466,100,-256
0,301654,405,-1362,-530,-1488,-312,-35,466,100,-256
0,301660,405,-1362,-530,-1488,-312,-35,466,100,-256
0,301665,412,-1360,-530,-1489,-308,-42,466,100,-256
0,301670,412,-1360,-530,-1489,-308,-42,466,100,-256
0,301675,412,-1360,-530,-1489,-308,-42,466,100,-256
0,301681,410,-1362,-539,-1484,-309,-46,466,100,-256
0,301686,410,-1362,-539,-1484,-309,-46,466,100,-256
0,301691,410,-1362,-539,-1484,-309,-46,466,100,-256
0,301697,410,-1362,-539,-1484,-309,-46,466,100,-256
0,301702,409,-1362,-532,-1493,-308,-46,466,100,-256
0,301708,409,-1362,-532,-1493,-308,-46,466,100,-256
0,301714,409,-1362,-532,-1493,-308,-46,466,100,-256
0,301719,409,-1362,-532,-1493,-308,-46,466,100,-256
0,301725,409,-1364,-536,-1485,-317,-44,466,100,-256
0,301730,409,-1364,-536,-1485,-317,-44,466,100,-256
0,301736,409,-1364,-536,-1485,-317,-44,466,100,-256
0,301742,408,-1362,-536,-1485,-311,-45,466,100,-256
0,301747,408,-1362,-536,-1485,-311,-45,466,100,-256
0,301753,408,-1362,-536,-1485,-311,-45,466,100,-256
0,301759,408,-1362,-536,-1485,-311,-45,466,100,-256
0,301764,410,-1360,-530,-1491,-314,-37,472,108,-250
0,301769,410,-1360,-530,-1491,-314,-37,472,108,-250
0,301774,410,-1360,-530,-1491,-314,-37,472,108,-250
0,301779,410,-1360,-530,-1491,-314,-37,472,108,-250
0,301785,407,-1362,-533,-1487,-302,-39,472,108,-250
0,301791,407,-1362,-533,-1487,-302,-39,472,108,-250
0,301796,407,-1362,-533,-1487,-302,-39,472,108,-250
0,301802,410,-1363,-532,-1493,-310,-44,472,108,-250
0,301807,410,-1363,-532,-1493,-310,-44,472,108,-250
0,301813,410,-1363,-532,-1493,-310,-44,472,108,-250
0,301818,410,-1363,-532,-1493,-310,-44,472,108,-250
0,301825,412,-1363,-536,-1482,-308,-51,472,108,-250
0,301830,412,-1363,-536,-1482,-308,-51,472,108,-250
0,301836,412,-1363,-536,-1482,-308,-51,472,108,-250
0,301842,410,-1360,-535,-1480,-308,-41,472,108,-250
0,301847,410,-1360,-535,-1480,-308,-41,472,108,-250
0,301853,410,-1360,-535,-1480,-308,-41,472,108,-250
0,301858,410,-1360,-535,-1480,-308,-41,472,108,-250
0,301864,409,-1357,-534,-1485,-308,-37,472,108,-250
0,301871,409,-1357,-534,-1485,-308,-37,472,108,-250
0,301876,409,-1357,-534,-1485,-308,-37,472,108,-250
0,301881,411,-1361,-534,-1484,-309,-47,460,108,-246
0,301887,411,-1361,-534,-1484,-309,-47,460,108,-246
0,301892,411,-1361,-534,-1484,-309,-47,460,108,-246
0,301897,411,-1361,-534,-1484,-309,-47,460,108,-246
0,301902,412,-1362,-535,-1483,-312,-41,460,108,-246
0,301908,412,-1362,-535,-1483,-312,-41,460,108,-246
0,301914,412,-1362,-535,-1483,-312,-41,460,108,-246
0,301920,412,-1362,-535,-1483,-312,-41,460,108,-246
0,301925,411,-1363,-537,-1484,-309,-43,460,108,-246
0,301930,411,-1363,-537,-1484,-309,-43,460,108,-246
0,301936,411,-1363,-537,-1484,-309,-43,460,108,-246
0,301941,411,-1359,-531,-1484,-315,-46,460,108,-246
0,301946,411,-1359,-531,-1484,-315,-46,460,108,-246
0,301953,411,-1359,-531,-1484,-315,-46,460,108,-246
0,301959,411,-1359,-531,-1484,-315,-46,460,108,-246
0,301964,410,-1359,-529,-1495,-306,-38,460,108,-246
0,301969,410,-1359,-529,-1495,-306,-38,460,108,-246
0,301974,410,-1359,-529,-1495,-306,-38,460,108,-246
0,301979,410,-1359,-529,-1495,-306,-38,460,108,-246
0,301984,410,-1362,-537,-1486,-307,-42,460,108,-246
0,301990,410,-1362,-537,-1486,-307,-42,460,108,-246
0,301997,410,-1362,-537,-1486,-307,-42,460,108,-246
0,302002,408,-1360,-534,-1486,-308,-46,476,110,-260
0,302008,408,-1360,-534,-1486,-308,-46,476,110,-260
0,302013,408,-1360,-534,-1486,-308,-46,476,110,-260
0,302018,408,-1360,-534,-1486,-308,-46,476,110,-260
0,302023,411,-1361,-533,-1492,-307,-49,476,110,-260
0,302029,411,-1361,-533,-1492,-307,-49,476,110,-260
0,302034,411,-1361,-533,-1492,-307,-49,476,110,-260
0,302041,409,-1361,-537,-1482,-308,-38,476,110,-260
0,302046,409,-1361,-537,-1482,-308,-38,476,110,-260
0,302052,409,-1361,-537,-1482,-308,-38,476,110,-260
0,302057,409,-1361,-537,-1482,-308,-38,476,110,-260
0,302064,412,-1363,-535,-1488,-309,-42,476,110,-260
0,302069,412,-1363,-535,-1488,-309,-42,476,110,-260
0,302076,412,-1363,-535,-1488,-309,-42,476,110,-260
0,302082,411,-1363,-532,-1492,-304,-43,476,110,-260
0,302087,411,-1363,-532,-1492,-304,-43,476,110,-260
0,302092,411,-1363,-532,-1492,-304,-43,476,110,-260
0,302098,411,-1363,-532,-1492,-304,-43,476,110,-260
0,302103,408,-1359,-531,-1486,-311,-48,476,110,-260
0,302108,408,-1359,-531,-1486,-311,-48,476,110,-260
0,302113,408,-1359,-531,-1486,-311,-48,476,110,-260
0,302119,408,-1359,-531,-1486,-311,-48,476,110,-260
0,302125,411,-1361,-536,-1488,-301,-56,476,110,-260
0,302130,411,-1361,-536,-1488,-301,-56,476,110,-260
0,302135,411,-1361,-536,-1488,-301,-56,476,110,-260
0,302140,411,-1361,-536,-1488,-301,-56,476,110,-260
0,302145,406,-1361,-534,-1486,-307,-55,463,101,-259
0,302150,406,-1361,-534,-1486,-307,-55,463,101,-259
0,302155,406,-1361,-534,-1486,-307,-55,463,101,-259
0,302160,408,-1359,-532,-1490,-311,-60,463,101,-259
0,302166,408,-1359,-532,-1490,-311,-60,463,101,-259
0,302172,408,-1359,-532,-1490,-311,-60,463,101,-259
0,302177,408,-1359,-532,-1490,-311,-60,463,101,-259
0,302182,408,-1364,-535,-1488,-314,-52,463,101,-259
0,302188,408,-1364,-535,-1488,-314,-52,463,101,-259
0,302193,408,-1364,-535,-1488,-314,-52,463,101,-259
0,302199,408,-1364,-535,-1488,-314,-52,463,101,-259
0,302204,410,-1363,-533,-1488,-316,-37,463,101,-259
0,302210,410,-1363,-533,-1488,-316,-37,463,101,-259
0,302215,410,-1363,-533,-1488,-316,-37,463,101,-259
0,302221,410,-1363,-533,-1488,-316,-37,463,101,-259
0,302226,409,-1358,-534,-1490,-313,-42,463,101,-259
0,302232,409,-1358,-534,-1490,-313,-42,463,101,-259
0,302237,409,-1358,-534,-1490,-313,-42,463,101,-259
0,302243,408,-1361,-534,-1482,-317,-41,463,101,-259
0,302248,408,-1361,-534,-1482,-317,-41,463,101,-259
0,302254,408,-1361,-534,-1482,-317,-41,463,101,-259
0,302259,408,-1361,-534,-1482,-317,-41,463,101,-259
0,302265,411,-1362,-532,-1484,-311,-44,470,122,-252
0,302270,411,-1362,-532,-1484,-311,-44,470,122,-252
0,302275,411,-1362,-532,-1484,-311,-44,470,122,-252
0,302280,411,-1362,-532,-1484,-311,-44,470,122,-252
0,302285,409,-1362,-529,-1484,-305,-44,470,122,-252
0,302291,409,-1362,-529,-1484,-305,-44,470,122,-252
0,302297,409,-1362,-529,-1484,-305,-44,470,122,-252
0,302303,408,-1360,-536,-1492,-312,-50,470,122,-252
0,302308,408,-1360,-536,-1492,-312,-50,470,122,-252
0,302314,408,-1360,-536,-1492,-312,-50,470,122,-252
0,302319,408,-1360,-536,-1492,-312,-50,470,122,-252
0,302324,410,-1362,-533,-1490,-311,-44,470,122,-252
0,302330,410,-1362,-533,-1490,-311,-44,470,122,-252
0,302336,410,-1362,-533,-1490,-311,-44,470,122,-252
0,302341,410,-1362,-539,-1486,-313,-41,470,122,-252
0,302346,410,-1362,-539,-1486,-313,-41,470,122,-252
0,302351,410,-1362,-539,-1486,-313,-41,470,122,-252
0,302357,410,-1362,-539,-1486,-313,-41,470,122,-252
0,302362,410,-1360,-535,-1489,-313,-39,470,122,-252
0,302367,410,-1360,-535,-1489,-313,-39,470,122,-252
0,302372,410,-1360,-535,-1489,-313,-39,470,122,-252
0,302379,410,-1360,-535,-1489,-313,-39,470,122,-252
0,302384,410,-1362,-529,-1489,-317,-48,466,104,-254
0,302390,410,-1362,-529,-1489,-317,-48,466,104,-254
0,302396,410,-1362,-529,-1489,-317,-48,466,104,-254
0,302401,409,-1364,-534,-1486,-305,-45,466,104,-254
0,302406,409,-1364,-534,-1486,-305,-45,466,104,-254
0,302411,409,-1364,-534,-1486,-305,-45,466,104,-254
0,302416,409,-1364,-534,-1486,-305,-45,466,104,-254
0,302423,409,-1364,-531,-1484,-310,-45,466,104,-254
0,302428,409,-1364,-531,-1484,-310,-45,466,104,-254
0,302433,409,-1364,-531,-1484,-310,-45,466,104,-254
0,302439,409,-1364,-531,-1484,-310,-45,466,104,-254
0,302444,409,-1361,-537,-1486,-310,-41,466,104,-254
0,302449,409,-1361,-537,-1486,-310,-41,466,104,-254
0,302454,409,-1361,-537,-1486,-310,-41,466,104,-254
0,302460,409,-1361,-537,-1486,-310,-41,466,104,-254
0,302466,412,-1364,-528,-1493,-304,-44,466,104,-254
0,302472,412,-1364,-528,-1493,-304,-44,466,104,-254
0,302477,412,-1364,-528,-1493,-304,-44,466,104,-254
0,302482,412,-1361,-534,-1491,-309,-45,466,104,-254
0,302487,412,-1361,-534,-1491,-309,-45,466,104,-254
0,302492,412,-1361,-534,-1491,-309,-45,466,104,-254
0,302498,412,-1361,-534,-1491,-309,-45,466,104,-254
0,302503,408,-1361,-531,-1493,-316,-44,462,104,-258
0,302510,408,-1361,-531,-1493,-316,-44,462,104,-258
0,302514,408,-1361,-531,-1493,-316,-44,462,104,-258
0,302520,408,-1361,-531,-1493,-316,-44,462,104,-258
0,302526,412,-1363,-529,-1490,-308,-42,462,104,-258
0,302531,412,-1363,-529,-1490,-308,-42,462,104,-258
0,302536,412,-1363,-529,-1490,-308,-42,462,104,-258
0,302541,412,-1364,-533,-1490,-308,-42,462,104,-258
0,302547,412,-1364,-533,-1490,-308,-42,462,104,-258
0,302553,412,-1364,-533,-1490,-308,-42,462,104,-258
0,302558,412,-1364,-533,-1490,-308,-42,462,104,-258
0,302563,413,-1361,-536,-1485,-302,-37,462,104,-258
0,302569,413,-1361,-536,-1485,-302,-37,462,104,-258
0,302575,413,-1361,-536,-1485,-302,-37,462,104,-258
0,302580,413,-1361,-536,-1485,-302,-37,462,104,-258
0,302585,410,-1361,-536,-1488,-304,-37,462,104,-258
0,302590,410,-1361,-536,-1488,-304,-37,462,104,-258
0,302597,410,-1361,-536,-1488,-304,-37,462,104,-258
0,302602,409,-1361,-535,-1482,-304,-48,462,104,-258
0,302607,409,-1361,-535,-1482,-304,-48,462,104,-258
0,302612,409,-1361,-535,-1482,-304,-48,462,104,-258
0,302618,409,-1361,-535,-1482,-304,-48,462,104,-258
0,302623,409,-1358,-537,-1478,-315,-45,475,113,-251
0,302628,409,-1358,-537,-1478,-315,-45,475,113,-251
0,302633,409,-1358,-537,-1478,-315,-45,475,113,-251
0,302640,409,-1358,-537,-1478,-315,-45,475,113,-251
0,302645,406,-1360,-531,-1478,-314,-42,475,113,-251
0,302650,406,-1360,-531,-1478,-314,-42,475,113,-251
0,302655,406,-1360,-531,-1478,-314,-42,475,113,-251
0,302661,408,-1361,-535,-1488,-310,-42,475,113,-251
0,302666,408,-1361,-535,-1488,-310,-42,475,113,-251
0,302671,408,-1361,-535,-1488,-310,-42,475,113,-251
0,302676,408,-1361,-535,-1488,-310,-42,475,113,-251
0,302683,409,-1363,-534,-1488,-313,-50,475,113,-251
0,302690,409,-1363,-534,-1488,-313,-50,475,113,-251
0,302697,409,-1363,-534,-1488,-313,-50,475,113,-251
0,302704,408,-1361,-530,-1492,-308,-42,475,113,-251
0,302709,408,-1361,-530,-1492,-308,-42,475,113,-251
0,302715,408,-1361,-530,-1492,-308,-42,475,113,-251
0,302721,408,-1361,-530,-1492,-308,-42,475,113,-251
0,302726,407,-1361,-535,-1487,-307,-41,475,113,-251
0,302731,407,-1361,-535,-1487,-307,-41,475,113,-251
0,302737,407,-1361,-535,-1487,-307,-41,475,113,-251
0,302743,408,-1360,-535,-1487,-320,-43,475,113,-251
0,302748,408,-1360,-535,-1487,-320,-43,475,113,-251
0,302753,408,-1360,-535,-1487,-320,-43,475,113,-251
0,302759,408,-1360,-535,-1487,-320,-43,475,113,-251
0,302765,410,-1359,-529,-1486,-318,-50,474,104,-256
0,302770,410,-1359,-529,-1486,-318,-50,474,104,-256
0,302775,410,-1359,-529,-1486,-318,-50,474,104,-256
0,302781,409,-1362,-534,-1486,-316,-46,474,104,-256
0,302787,409,-1362,-534,-1486,-316,-46,474,104,-256
0,302792,409,-1362,-534,-1486,-316,-46,474,104,-256
0,302797,409,-1362,-534,-1486,-316,-46,474,104,-256
0,302802,410,-1362,-530,-1483,-311,-43,474,104,-256
0,302809,410,-1362,-530,-1483,-311,-43,474,104,-256
0,302814,410,-1362,-530,-1483,-311,-43,474,104,-256
0,302819,410,-1362,-530,-1483,-311,-43,474,104,-256
0,302825,412,-1362,-535,-1488,-308,-40,474,104,-256
0,302831,412,-1362,-535,-1488,-308,-40,474,104,-256
0,302837,412,-1362,-535,-1488,-308,-40,474,104,-256
0,302842,411,-1364,-537,-1495,-316,-39,474,104,-256
0,302848,411,-1364,-537,-1495,-316,-39,474,104,-256
0,302854,411,-1364,-537,-1495,-316,-39,474,104,-256
0,302859,411,-1364,-537,-1495,-316,-39,474,104,-256
0,302864,409,-1359,-531,-1495,-313,-38,474,104,-256
0,302870,409,-1359,-531,-1495,-313,-38,474,104,-256
0,302875,409,-1359,-531,-1495,-313,-38,474,104,-256
0,302880,409,-1359,-531,-1495,-313,-38,474,104,-256
0,302886,409,-1361,-531,-1487,-306,-45,469,113,-255
0,302892,409,-1361,-531,-1487,-306,-45,469,113,-255
0,302898,409,-1361,-531,-1487,-306,-45,469,113,-255
0,302903,409,-1363,-531,-1487,-310,-46,469,113,-255
0,302909,409,-1363,-531,-1487,-310,-46,469,113,-255
0,302915,409,-1363,-531,-1487,-310,-46,469,113,-255
0,302921,410,-1360,-536,-1488,-309,-43,469,113,-255
0,302927,410,-1360,-536,-1488,-309,-43,469,113,-255
0,302932,410,-1360,-536,-1488,-309,-43,469,113,-255
0,302939,410,-1360,-536,-1488,-309,-43,469,113,-255
0,302944,412,-1361,-532,-1484,-311,-38,469,113,-255
0,302949,412,-1361,-532,-1484,-311,-38,469,113,-255
0,302955,412,-1361,-532,-1484,-311,-38,469,113,-255
0,302959,412,-1361,-532,-1484,-311,-38,469,113,-255
0,302964,412,-1363,-528,-1487,-314,-40,469,113,-255
0,302969,412,-1363,-528,-1487,-314,-40,469,113,-255
0,302974,412,-1363,-528,-1487,-314,-40,469,113,-255
0,302981,412,-1363,-528,-1487,-314,-40,469,113,-255
0,302986,409,-1360,-535,-1485,-310,-41,469,113,-255
0,302991,409,-1360,-535,-1485,-310,-41,469,113,-255
0,302997,409,-1360,-535,-1485,-310,-41,469,113,-255
0,303003,410,-1360,-530,-1486,-311,-46,483,107,-249
0,303008,410,-1360,-530,-1486,-311,-46,483,107,-249
0,303013,410,-1360,-530,-1486,-311,-46,483,107,-249
0,303020,410,-1360,-530,-1486,-311,-46,483,107,-249
0,303025,410,-1362,-532,-1483,-308,-46,483,107,-249
0,303031,410,-1362,-532,-1483,-308,-46,483,107,-249
0,303037,410,-1362,-532,-1483,-308,-46,483,107,-249
0,303042,411,-1361,-529,-1485,-317,-45,483,107,-249
0,303048,411,-1361,-529,-1485,-317,-45,483,107,-249
0,303053,411,-1361,-529,-1485,-317,-45,483,107,-249
0,303059,411,-1361,-529,-1485,-317,-45,483,107,-249
0,303065,407,-1358,-533,-1486,-313,-47,483,107,-249
0,303070,407,-1358,-533,-1486,-313,-47,483,107,-249
0,303076,407,-1358,-533,-1486,-313,-47,483,107,-249
0,303081,410,-1360,-530,-1490,-306,-46,483,107,-249
0,303086,410,-1360,-530,-1490,-306,-46,483,107,-249
0,303091,410,-1360,-530,-1490,-306,-46,483,107,-249
0,303097,410,-1360,-530,-1490,-306,-46,483,107,-249
0,303102,411,-1363,-535,-1491,-307,-46,483,107,-249
0,303109,411,-1363,-535,-1491,-307,-46,483,107,-249
0,303114,411,-1363,-535,-1491,-307,-46,483,107,-249
0,303119,411,-1363,-535,-1491,-307,-46,483,107,-249
0,303125,409,-1359,-537,-1490,-306,-41,476,106,-256
0,303130,409,-1359,-537,-1490,-306,-41,476,106,-256
0,303135,409,-1359,-537,-1490,-306,-41,476,106,-256
0,303141,410,-1360,-533,-1488,-311,-36,476,106,-256
0,303148,410,-1360,-533,-1488,-311,-36,476,106,-256
0,303153,410,-1360,-533,-1488,-311,-36,476,106,-256
0,303159,410,-1360,-533,-1488,-311,-36,476,106,-256
0,303164,411,-1361,-534,-1482,-309,-44,476,106,-256
0,303170,411,-1361,-534,-1482,-309,-44,476,106,-256
0,303175,411,-1361,-534,-1482,-309,-44,476,106,-256
0,303180,411,-1361,-534,-1482,-309,-44,476,106,-256
0,303186,409,-1362,-537,-1490,-312,-37,476,106,-256
0,303192,409,-1362,-537,-1490,-312,-37,476,106,-256
0,303197,409,-1362,-537,-1490,-312,-37,476,106,-256
0,303203,410,-1363,-539,-1489,-313,-45,476,106,-256
0,303208,410,-1363,-539,-1489,-313,-45,476,106,-256
0,303213,410,-1363,-539,-1489,-313,-45,476,106,-256
0,303219,410,-1363,-539,-1489,-313,-45,476,106,-256
0,303224,414,-1364,-537,-1486,-314,-43,476,106,-256
0,303229,414,-1364,-537,-1486,-314,-43,476,106,-256
0,303235,414,-1364,-537,-1486,-314,-43,476,106,-256
0,303240,414,-1364,-537,-1486,-314,-43,476,106,-256
0,303246,411,-1362,-530,-1484,-316,-38,470,110,-250
0,303252,411,-1362,-530,-1484,-316,-38,470,110,-250
0,303257,411,-1362,-530,-1484,-316,-38,470,110,-250
0,303263,411,-1358,-528,-1487,-313,-39,470,110,-250
0,303268,411,-1358,-528,-1487,-313,-39,470,110,-250
0,303275,411,-1358,-528,-1487,-313,-39,470,110,-250
0,303280,411,-1358,-528,-1487,-313,-39,470,110,-250
0,303286,408,-1360,-535,-1486,-305,-44,470,110,-250
0,303292,408,-1360,-535,-1486,-305,-44,470,110,-250
0,303298,408,-1360,-535,-1486,-305,-44,470,110,-250
0,303303,408,-1360,-535,-1486,-305,-44,470,110,-250
0,303308,408,-1360,-535,-1486,-305,-44,470,110,-250
0,303314,408,-1360,-535,-1486,-305,-44,470,110,-250
0,303320,408,-1360,-535,-1486,-305,-44,470,110,-250
0,303326,409,-1362,-532,-1494,-309,-44,470,110,-250
0,303331,409,-1362,-532,-1494,-309,-44,470,110,-250
0,303337,409,-1362,-532,-1494,-309,-44,470,110,-250
0,303343,411,-1362,-537,-1494,-307,-46,470,110,-250
0,303348,411,-1362,-537,-1494,-307,-46,470,110,-250
0,303353,411,-1362,-537,-1494,-307,-46,470,110,-250
0,303358,411,-1362,-537,-1494,-307,-46,470,110,-250
0,303364,412,-1364,-530,-1491,-310,-45,470,110,-250
0,303370,412,-1364,-530,-1491,-310,-45,470,110,-250
0,303375,412,-1364,-530,-1491,-310,-45,470,110,-250
0,303381,412,-1364,-530,-1491,-310,-45,470,110,-250
0,303386,411,-1364,-533,-1485,-309,-42,468,110,-260
0,303391,411,-1364,-533,-1485,-309,-42,468,110,-260
0,303397,411,-1364,-533,-1485,-309,-42,468,110,-260
0,303403,412,-1363,-530,-1483,-309,-47,468,110,-260
0,303409,412,-1363,-530,-1483,-309,-47,468,110,-260
0,303414,412,-1363,-530,-1483,-309,-47,468,110,-260
0,303419,412,-1363,-530,-1483,-309,-47,468,110,-260
0,303424,411,-1364,-534,-1490,-314,-44,468,110,-260
0,303429,411,-1364,-534,-1490,-314,-44,468,110,-260
0,303434,411,-1364,-534,-1490,-314,-44,468,110,-260
0,303440,411,-1364,-534,-1490,-314,-44,468,110,-260
0,303446,410,-1362,-532,-1493,-312,-44,468,110,-260
0,303451,410,-1362,-532,-1493,-312,-44,468,110,-260
0,303456,410,-1362,-532,-1493,-312,-44,468,110,-260
0,303462,411,-1363,-529,-1483,-310,-42,468,110,-260
0,303468,411,-1363,-529,-1483,-310,-42,468,110,-260
0,303473,411,-1363,-529,-1483,-310,-42,468,110,-260
0,303478,411,-1363,-529,-1483,-310,-42,468,110,-260
0,303483,409,-1363,-533,-1485,-309,-43,468,110,-260
0,303489,409,-1363,-533,-1485,-309,-43,468,110,-260
0,303495,409,-1363,-533,-1485,-309,-43,468,110,-260
0,303500,409,-1363,-533,-1485,-309,-43,468,110,-260
0,303505,413,-1360,-529,-1487,-309,-39,471,107,-251
0,303511,413,-1360,-529,-1487,-309,-39,471,107,-251
0,303516,413,-1360,-529,-1487,-309,-39,471,107,-251
0,303521,411,-1358,-529,-1485,-314,-40,471,107,-251
0,303527,411,-1358,-529,-1485,-314,-40,471,107,-251
0,303534,411,-1358,-529,-1485,-314,-40,471,107,-251
0,303539,411,-1358,-529,-1485,-314,-40,471,107,-251
0,303545,411,-1363,-533,-1486,-317,-42,471,107,-251
0,303551,411,-1363,-533,-1486,-317,-42,471,107,-251
0,303556,411,-1363,-533,-1486,-317,-42,471,107,-251
0,303561,409,-1360,-529,-1490,-318,-49,471,107,-251
0,303567,409,-1360,-529,-1490,-318,-49,471,107,-251
0,303572,409,-1360,-529,-1490,-318,-49,471,107,-251
0,303578,409,-1360,-529,-1490,-318,-49,471,107,-251
0,303583,410,-1360,-533,-1488,-315,-48,471,107,-251
0,303588,410,-1360,-533,-1488,-315,-48,471,107,-251
0,303594,410,-1360,-533,-1488,-315,-48,471,107,-251
0,303599,410,-1360,-533,-1488,-315,-48,471,107,-251
0,303604,407,-1362,-533,-1488,-311,-52,471,107,-251
0,303609,407,-1362,-533,-1488,-311,-52,471,107,-251
0,303616,407,-1362,-533,-1488,-311,-52,471,107,-251
0,303621,407,-1362,-533,-1488,-311,-52,471,107,-251
0,303627,409,-1359,-531,-1483,-317,-44,474,104,-254
0,303632,409,-1359,-531,-1483,-317,-44,474,104,-254
0,303637,409,-1359,-531,-1483,-317,-44,474,104,-254
0,303642,410,-1361,-533,-1495,-310,-47,474,104,-254
0,303648,410,-1361,-533,-1495,-310,-47,474,104,-254
0,303653,410,-1361,-533,-1495,-310,-47,474,104,-254
0,303660,410,-1361,-533,-1495,-310,-47,474,104,-254
0,303665,410,-1362,-530,-1493,-313,-48,474,104,-254
0,303670,410,-1362,-530,-1493,-313,-48,474,104,-254
0,303675,410,-1362,-530,-1493,-313,-48,474,104,-254
0,303681,410,-1362,-530,-1493,-313,-48,474,104,-254
0,303686,409,-1361,-534,-1491,-304,-40,474,104,-254
0,303691,409,-1361,-534,-1491,-304,-40,474,104,-254
0,303696,409,-1361,-534,-1491,-304,-40,474,104,-254
0,303703,411,-1364,-529,-1491,-304,-45,474,104,-254
0,303708,411,-1364,-529,-1491,-304,-45,474,104,-254
0,303714,411,-1364,-529,-1491,-304,-45,474,104,-254
0,303719,411,-1364,-529,-1491,-304,-45,474,104,-254
0,303725,408,-1362,-535,-1487,-309,-40,474,104,-254
0,303730,408,-1362,-535,-1487,-309,-40,474,104,-254
0,303735,408,-1362,-535,-1487,-309,-40,474,104,-254
0,303741,410,-1362,-533,-1488,-313,-49,474,104,-254
0,303747,410,-1362,-533,-1488,-313,-49,472,110,-254
0,303753,410,-1362,-533,-1488,-313,-49,472,110,-254
0,303758,410,-1362,-533,-1488,-313,-49,472,110,-254
0,303764,409,-1360,-535,-1487,-313,-39,472,110,-254
0,303769,409,-1360,-535,-1487,-313,-39,472,110,-254
0,303775,409,-1360,-535,-1487,-313,-39,472,110,-254
0,303780,409,-1360,-535,-1487,-313,-39,472,110,-254
0,303785,410,-1361,-535,-1491,-311,-39,472,110,-254
0,303791,410,-1361,-535,-1491,-311,-39,472,110,-254
0,303797,410,-1361,-535,-1491,-311,-39,472,110,-254
0,303802,410,-1361,-535,-1493,-314,-39,472,110,-254
0,303808,410,-1361,-535,-1493,-314,-39,472,110,-254
0,303813,410,-1361,-535,-1493,-314,-39,472,110,-254
0,303818,410,-1361,-535,-1493,-314,-39,472,110,-254
0,303824,409,-1360,-537,-1493,-306,-34,472,110,-254
0,303830,409,-1360,-537,-1493,-306,-34,472,110,-254
0,303836,409,-1360,-537,-1493,-306,-34,472,110,-254
0,303842,410,-1360,-540,-1496,-309,-38,472,110,-254
0,303847,410,-1360,-540,-1496,-309,-38,472,110,-254
0,303852,410,-1360,-540,-1496,-309,-38,472,110,-254
0,303858,410,-1360,-540,-1496,-309,-38,472,110,-254
0,303863,409,-1364,-534,-1491,-307,-42,472,104,-250
0,303868,409,-1364,-534,-1491,-307,-42,472,104,-250
0,303875,409,-1364,-534,-1491,-307,-42,472,104,-250
0,303880,409,-1364,-534,-1491,-307,-42,472,104,-250
0,303886,408,-1363,-529,-1493,-311,-46,472,104,-250
0,303891,408,-1363,-529,-1493,-311,-46,472,104,-250
0,303896,408,-1363,-529,-1493,-311,-46,472,104,-250
0,303901,410,-1362,-537,-1496,-311,-46,472,104,-250
0,303907,410,-1362,-537,-1496,-311,-46,472,104,-250
0,303912,410,-1362,-537,-1496,-311,-46,472,104,-250
0,303918,410,-1362,-537,-1496,-311,-46,472,104,-250
0,303923,409,-1363,-538,-1490,-307,-49,472,104,-250
0,303928,409,-1363,-538,-1490,-307,-49,472,104,-250
0,303933,409,-1363,-538,-1490,-307,-49,472,104,-250
0,303938,409,-1363,-538,-1490,-307,-49,472,104,-250
0,303943,411,-1361,-532,-1493,-309,-46,472,104,-250
0,303949,411,-1361,-532,-1493,-309,-46,472,104,-250
0,303954,411,-1361,-532,-1493,-309,-46,472,104,-250
0,303960,411,-1361,-532,-1493,-309,-46,472,104,-250
0,303965,409,-1363,-539,-1491,-304,-44,472,104,-250
0,303971,409,-1363,-539,-1491,-304,-44,472,104,-250
0,303976,409,-1363,-539,-1491,-304,-44,472,104,-250
0,303982,409,-1358,-534,-1486,-307,-45,472,104,-250
0,303988,409,-1358,-534,-1486,-307,-45,472,104,-250
0,303993,409,-1358,-534,-1486,-307,-45,472,104,-250
0,304000,409,-1358,-534,-1486,-307,-45,472,104,-250
0,304005,408,-1360,-534,-1489,-310,-44,471,101,-257
0,304010,408,-1360,-534,-1489,-310,-44,471,101,-257
0,304015,408,-1360,-534,-1489,-310,-44,471,101,-257
0,304021,408,-1360,-534,-1489,-310,-44,471,101,-257
0,304026,410,-1363,-531,-1491,-311,-41,471,101,-257
0,304032,410,-1363,-531,-1491,-311,-41,471,101,-257
0,304037,410,-1363,-531,-1491,-311,-41,471,101,-257
0,304043,409,-1362,-533,-1487,-304,-48,471,101,-257
0,304048,409,-1362,-533,-1487,-304,-48,471,101,-257
0,304053,409,-1362,-533,-1487,-304,-48,471,101,-257
0,304059,409,-1362,-533,-1487,-304,-48,471,101,-257
0,304064,412,-1359,-532,-1487,-312,-44,471,101,-257
0,304070,412,-1359,-532,-1487,-312,-44,471,101,-257
0,304075,412,-1359,-532,-1487,-312,-44,471,101,-257
0,304080,412,-1359,-532,-1487,-312,-44,471,101,-257
0,304087,410,-1360,-535,-1490,-315,-46,471,101,-257
0,304092,410,-1360,-535,-1490,-315,-46,471,101,-257
0,304098,410,-1360,-535,-1490,-315,-46,471,101,-257
0,304103,411,-1358,-534,-1487,-313,-47,471,101,-257
0,304108,411,-1358,-534,-1487,-313,-47,471,101,-257
0,304113,411,-1358,-534,-1487,-313,-47,471,101,-257
0,304119,411,-1358,-534,-1487,-313,-47,471,101,-257
0,304124,411,-1358,-534,-1487,-313,-47,470,106,-250
0,304131,411,-1358,-534,-1487,-313,-47,470,106,-250
0,304136,411,-1358,-534,-1487,-313,-47,470,106,-250
0,304142,407,-1360,-535,-1492,-317,-44,470,106,-250
0,304148,407,-1360,-535,-1492,-317,-44,470,106,-250
0,304154,407,-1360,-535,-1492,-317,-44,470,106,-250
0,304159,407,-1360,-535,-1492,-317,-44,470,106,-250
0,304164,407,-1360,-537,-1493,-309,-39,470,106,-250
0,304169,407,-1360,-537,-1493,-309,-39,470,106,-250
0,304175,407,-1360,-537,-1493,-309,-39,470,106,-250
0,304181,407,-1360,-537,-1493,-309,-39,470,106,-250
0,304186,408,-1360,-535,-1485,-310,-38,470,106,-250
0,304192,408,-1360,-535,-1485,-310,-38,470,106,-250
0,304197,408,-1360,-535,-1485,-310,-38,470,106,-250
0,304202,409,-1358,-536,-1484,-311,-45,470,106,-250
0,304208,409,-1358,-536,-1484,-311,-45,470,106,-250
0,304214,409,-1358,-536,-1484,-311,-45,470,106,-250
0,304219,409,-1358,-536,-1484,-311,-45,470,106,-250
0,304225,409,-1362,-534,-1487,-311,-41,470,106,-250
0,304230,409,-1362,-534,-1487,-311,-41,470,106,-250
0,304235,409,-1362,-534,-1487,-311,-41,470,106,-250
0,304241,409,-1362,-534,-1487,-311,-41,470,106,-250
0,304246,409,-1358,-537,-1488,-309,-40,475,105,-255
0,304252,409,-1358,-537,-1488,-309,-40,475,105,-255
0,304258,409,-1358,-537,-1488,-309,-40,475,105,-255
0,304263,412,-1359,-537,-1485,-312,-44,475,105,-255
0,304268,412,-1359,-537,-1485,-312,-44,475,105,-255
0,304274,412,-1359,-537,-1485,-312,-44,475,105,-255
0,304280,412,-1359,-537,-1485,-312,-44,475,105,-255
0,304285,410,-1360,-531,-1491,-312,-43,475,105,-255
0,304290,410,-1360,-531,-1491,-312,-43,475,105,-255
0,304296,410,-1360,-531,-1491,-312,-43,475,105,-255
0,304302,407,-1362,-533,-1493,-311,-41,475,105,-255
0,304308,407,-1362,-533,-1493,-311,-41,475,105,-255
0,304314,407,-1362,-533,-1493,-311,-41,475,105,-255
0,304319,407,-1362,-533,-1493,-311,-41,475,105,-255
0,304324,413,-1362,-537,-1491,-308,-45,475,105,-255
0,304330,413,-1362,-537,-1491,-308,-45,475,105,-255
0,304335,413,-1362,-537,-1491,-308,-45,475,105,-255
0,304342,413,-1362,-537,-1491,-308,-45,475,105,-255
0,304347,408,-1358,-534,-1481,-307,-49,475,105,-255
0,304351,408,-1358,-534,-1481,-307,-49,475,105,-255
0,304356,408,-1358,-534,-1481,-307,-49,475,105,-255
0,304362,411,-1358,-534,-1482,-312,-53,469,103,-251
0,304367,411,-1358,-534,-1482,-312,-53,469,103,-251
0,304373,411,-1358,-534,-1482,-312,-53,469,103,-251
0,304378,411,-1358,-534,-1482,-312,-53,469,103,-251
0,304384,408,-1359,-532,-1488,-318,-50,469,103,-251
0,304389,408,-1359,-532,-1488,-318,-50,469,103,-251
0,304394,408,-1359,-532,-1488,-318,-50,469,103,-251
0,304399,408,-1359,-532,-1488,-318,-50,469,103,-251
0,304405,410,-1359,-538,-1487,-311,-46,469,103,-251
0,304410,410,-1359,-538,-1487,-311,-46,469,103,-251
0,304415,410,-1359,-538,-1487,-311,-46,469,103,-251
0,304420,410,-1359,-538,-1487,-311,-46,469,103,-251
0,304427,408,-1361,-531,-1491,-310,-45,469,103,-251
0,304432,408,-1361,-531,-1491,-310,-45,469,103,-251
0,304438,408,-1361,-531,-1491,-310,-45,469,103,-251
0,304443,409,-1360,-540,-1486,-316,-41,469,103,-251
0,304448,409,-1360,-540,-1486,-316,-41,469,103,-251
0,304454,409,-1360,-540,-1486,-316,-41,469,103,-251
0,304459,409,-1360,-540,-1486,-316,-41,469,103,-251
0,304464,408,-1360,-531,-1483,-317,-50,469,103,-251
0,304471,408,-1360,-531,-1483,-317,-50,469,103,-251
0,304476,408,-1360,-531,-1483,-317,-50,469,103,-251
0,304482,409,-1360,-533,-1483,-308,-46,469,103,-251
0,304487,409,-1360,-533,-1483,-308,-46,469,103,-251
0,304492,409,-1360,-533,-1483,-308,-46,469,103,-251
0,304497,409,-1360,-533,-1483,-308,-46,469,103,-251
0,304503,410,-1360,-535,-1486,-309,-44,475,109,-255
0,304508,410,-1360,-535,-1486,-309,-44,475,109,-255
0,304514,410,-1360,-535,-1486,-309,-44,475,109,-255
0,304520,410,-1360,-535,-1486,-309,-44,475,109,-255
0,304525,413,-1360,-527,-1481,-310,-49,475,109,-255
0,304531,413,-1360,-527,-1481,-310,-49,475,109,-255
0,304536,413,-1360,-527,-1481,-310,-49,475,109,-255
0,304541,413,-1360,-527,-1481,-310,-49,475,109,-255
0,304547,409,-1361,-534,-1481,-301,-47,475,109,-255
0,304552,409,-1361,-534,-1481,-301,-47,475,109,-255
0,304559,409,-1361,-534,-1481,-301,-47,475,109,-255
0,304564,413,-1363,-535,-1479,-309,-46,475,109,-255
0,304570,413,-1363,-535,-1479,-309,-46,475,109,-255
0,304575,413,-1363,-535,-1479,-309,-46,475,109,-255
0,304580,413,-1363,-535,-1479,-309,-46,475,109,-255
0,304585,411,-1361,-532,-1478,-313,-48,475,109,-255
0,304591,411,-1361,-532,-1478,-313,-48,475,109,-255
0,304596,411,-1361,-532,-1478,-313,-48,475,109,-255
0,304603,410,-1363,-530,-1490,-302,-51,475,109,-255
0,304607,410,-1363,-530,-1490,-302,-51,475,109,-255
0,304613,410,-1363,-530,-1490,-302,-51,475,109,-255
0,304619,410,-1363,-530,-1490,-302,-51,475,109,-255
0,304624,412,-1359,-529,-1487,-309,-46,475,103,-249
0,304629,412,-1359,-529,-1487,-309,-46,475,103,-249
0,304634,412,-1359,-529,-1487,-309,-46,475,103,-249
0,304641,412,-1359,-529,-1487,-309,-46,475,103,-249
0,304647,413,-1360,-535,-1487,-313,-49,475,103,-249
0,304652,413,-1360,-535,-1487,-313,-49,475,103,-249
0,304658,413,-1360,-535,-1487,-313,-49,475,103,-249
0,304663,410,-1360,-534,-1487,-311,-49,475,103,-249
0,304668,410,-1360,-534,-1487,-311,-49,475,103,-249
0,304674,410,-1360,-534,-1487,-311,-49,475,103,-249
0,304680,410,-1360,-534,-1487,-311,-49,475,103,-249
0,304686,411,-1361,-538,-1486,-310,-45,475,103,-249
0,304691,411,-1361,-538,-1486,-310,-45,475,103,-249
0,304696,411,-1361,-538,-1486,-310,-45,475,103,-249
0,304702,413,-1363,-530,-1491,-310,-44,475,103,-249
0,304708,413,-1363,-530,-1491,-310,-44,475,103,-249
0,304713,413,-1363,-530,-1491,-310,-44,475,103,-249
0,304718,413,-1363,-530,-1491,-310,-44,475,103,-249
0,304723,409,-1362,-530,-1488,-313,-42,475,103,-249
0,304729,409,-1362,-530,-1488,-313,-42,475,103,-249
0,304735,409,-1362,-530,-1488,-313,-42,475,103,-249
0,304740,409,-1362,-530,-1488,-313,-42,475,103,-249
0,304746,409,-1362,-530,-1488,-313,-42,470,108,-254
0,304751,409,-1362,-530,-1488,-313,-42,470,108,-254
0,304756,409,-1362,-530,-1488,-313,-42,470,108,-254
0,304762,410,-1358,-531,-1496,-315,-41,470,108,-254
0,304768,410,-1358,-531,-1496,-315,-41,470,108,-254
0,304774,410,-1358,-531,-1496,-315,-41,470,108,-254
0,304779,410,-1358,-531,-1496,-315,-41,470,108,-254
0,304784,410,-1362,-534,-1492,-319,-46,470,108,-254
0,304789,410,-1362,-534,-1492,-319,-46,470,108,-254
0,304795,410,-1362,-534,-1492,-319,-46,470,108,-254
0,304800,410,-1362,-534,-1492,-319,-46,470,108,-254
0,304806,413,-1359,-535,-1489,-310,-47,470,108,-254
0,304812,413,-1359,-535,-1489,-310,-47,470,108,-254
0,304818,413,-1359,-535,-1489,-310,-47,470,108,-254
0,304822,412,-1362,-535,-1485,-315,-48,470,108,-254
0,304828,412,-1362,-535,-1485,-315,-48,470,108,-254
0,304834,412,-1362,-535,-1485,-315,-48,470,108,-254
0,304839,412,-1362,-535,-1485,-315,-48,470,108,-254
0,304844,410,-1360,-535,-1485,-314,-46,470,108,-254
0,304849,410,-1360,-535,-1485,-314,-46,470,108,-254
0,304856,410,-1360,-535,-1485,-314,-46,470,108,-254
0,304862,410,-1360,-535,-1485,-314,-46,470,108,-254
0,304867,412,-1359,-531,-1479,-306,-50,464,112,-248
0,304872,412,-1359,-531,-1479,-306,-50,464,112,-248
0,304877,412,-1359,-531,-1479,-306,-50,464,112,-248
0,304883,412,-1362,-535,-1485,-311,-42,464,112,-248
0,304888,412,-1362,-535,-1485,-311,-42,464,112,-248
0,304894,412,-1362,-535,-1485,-311,-42,464,112,-248
0,304900,412,-1362,-535,-1485,-311,-42,464,112,-248
0,304905,411,-1362,-532,-1488,-306,-45,464,112,-248
0,304910,411,-1362,-532,-1488,-306,-45,464,112,-248
0,304915,411,-1362,-532,-1488,-306,-45,464,112,-248
0,304920,411,-1362,-532,-1488,-306,-45,464,112,-248
0,304925,411,-1361,-533,-1481,-307,-41,464,112,-248
0,304931,411,-1361,-533,-1481,-307,-41,464,112,-248
0,304936,411,-1361,-533,-1481,-307,-41,464,112,-248
0,304945,408,-1359,-537,-1478,-308,-54,464,112,-248
0,304950,408,-1359,-537,-1478,-308,-54,464,112,-248
0,304955,408,-1359,-537,-1478,-308,-54,464,112,-248
0,304961,408,-1359,-537,-1478,-308,-54,464,112,-248
0,304966,408,-1359,-535,-1487,-315,-45,464,112,-248
0,304971,408,-1359,-535,-1487,-315,-45,464,112,-248
0,304977,408,-1359,-535,-1487,-315,-45,464,112,-248
0,304983,410,-1363,-534,-1484,-315,-43,472,106,-258
0,304989,410,-1363,-534,-1484,-315,-43,472,106,-258
0,304993,410,-1363,-534,-1484,-315,-43,472,106,-258
0,304999,410,-1363,-534,-1484,-315,-43,472,106,-258
0,305004,411,-1361,-529,-1486,-314,-51,472,106,-258
0,305010,411,-1361,-529,-1486,-314,-51,472,106,-258
0,305015,411,-1361,-529,-1486,-314,-51,472,106,-258
0,305020,411,-1361,-529,-1486,-314,-51,472,106,-258
0,305027,411,-1361,-529,-1486,-314,-51,472,106,-258
0,305033,411,-1361,-529,-1486,-314,-51,472,106,-258
0,305038,411,-1361,-529,-1486,-314,-51,472,106,-258
0,305043,410,-1362,-534,-1489,-306,-44,472,106,-258
0,305049,410,-1362,-534,-1489,-306,-44,472,106,-258
0,305054,410,-1362,-534,-1489,-306,-44,472,106,-258
0,305059,410,-1362,-534,-1489,-306,-44,472,106,-258
0,305064,412,-1360,-531,-1492,-317,-53,472,106,-258
0,305070,412,-1360,-531,-1492,-317,-53,472,106,-258
0,305075,412,-1360,-531,-1492,-317,-53,472,106,-258
0,305080,412,-1360,-531,-1492,-317,-53,472,106,-258
0,305085,411,-1364,-533,-1487,-308,-45,472,106,-258
0,305090,411,-1364,-533,-1487,-308,-45,472,106,-258
0,305096,411,-1364,-533,-1487,-308,-45,472,106,-258
0,305101,411,-1364,-533,-1487,-308,-45,472,106,-258
0,305106,409,-1359,-530,-1488,-304,-43,472,106,-258
0,305113,409,-1359,-530,-1488,-304,-43,472,106,-258
0,305118,409,-1359,-530,-1488,-304,-43,472,106,-258
0,305124,412,-1361,-535,-1486,-310,-36,476,112,-256
0,305129,412,-1361,-535,-1486,-310,-36,476,112,-256
0,305134,412,-1361,-535,-1486,-310,-36,476,112,-256
0,305140,412,-1361,-535,-1486,-310,-36,476,112,-256
0,305145,411,-1362,-531,-1489,-309,-44,476,112,-256
0,305150,411,-1362,-531,-1489,-309,-44,476,112,-256
0,305157,411,-1362,-531,-1489,-309,-44,476,112,-256
0,305162,412,-1360,-538,-1487,-305,-39,476,112,-256
0,305168,412,-1360,-538,-1487,-305,-39,476,112,-256
0,305173,412,-1360,-538,-1487,-305,-39,476,112,-256
0,305179,412,-1360,-538,-1487,-305,-39,476,112,-256
0,305184,411,-1360,-534,-1487,-311,-42,476,112,-256
0,305189,411,-1360,-534,-1487,-311,-42,476,112,-256
0,305195,411,-1360,-534,-1487,-311,-42,476,112,-256
0,305201,411,-1360,-534,-1487,-311,-42,476,112,-256
0,305206,411,-1361,-537,-1481,-313,-44,476,112,-256
0,305211,411,-1361,-537,-1481,-313,-44,476,112,-256
0,305217,411,-1361,-537,-1481,-313,-44,476,112,-256
0,305222,411,-1359,-529,-1496,-314,-40,476,112,-256
0,305228,411,-1359,-529,-1496,-314,-40,476,112,-256
0,305234,411,-1359,-529,-1496,-314,-40,476,112,-256
0,305240,411,-1359,-529,-1496,-314,-40,476,112,-256
0,305246,411,-1361,-532,-1496,-307,-35,477,103,-249
0,305251,411,-1361,-532,-1496,-307,-35,477,103,-249
0,305257,411,-1361,-532,-1496,-307,-35,477,103,-249
0,305263,410,-1362,-534,-1482,-311,-39,477,103,-249
0,305268,410,-1362,-534,-1482,-311,-39,477,103,-249
0,305274,410,-1362,-534,-1482,-311,-39,477,103,-249
0,305280,410,-1362,-534,-1482,-311,-39,477,103,-249
0,305285,410,-1363,-535,-1486,-318,-39,477,103,-249
0,305290,410,-1363,-535,-1486,-318,-39,477,103,-249
0,305295,410,-1363,-535,-1486,-318,-39,477,103,-249
0,305301,410,-1363,-535,-1486,-318,-39,477,103,-249
0,305306,408,-1361,-533,-1478,-312,-43,477,103,-249
0,305312,408,-1361,-533,-1478,-312,-43,477,103,-249
0,305318,408,-1361,-533,-1478,-312,-43,477,103,-249
0,305324,410,-1360,-533,-1491,-308,-48,477,103,-249
0,305329,410,-1360,-533,-1491,-308,-48,477,103,-249
0,305335,410,-1360,-533,-1491,-308,-48,477,103,-249
0,305340,410,-1360,-533,-1491,-308,-48,477,103,-249
0,305345,408,-1359,-540,-1490,-312,-47,477,103,-249
0,305351,408,-1359,-540,-1490,-312,-47,477,103,-249
0,305356,408,-1359,-540,-1490,-312,-47,477,103,-249
0,305361,411,-1359,-531,-1488,-313,-44,477,103,-249
0,305368,411,-1359,-531,-1488,-313,-44,474,102,-252
0,305373,411,-1359,-531,-1488,-313,-44,474,102,-252
0,305379,411,-1359,-531,-1488,-313,-44,474,102,-252
0,305384,409,-1361,-533,-1487,-310,-45,474,102,-252
0,305391,409,-1361,-533,-1487,-310,-45,474,102,-252
0,305396,409,-1361,-533,-1487,-310,-45,474,102,-252
0,305401,409,-1361,-533,-1487,-310,-45,474,102,-252
0,305408,413,-1360,-533,-1486,-305,-43,474,102,-252
0,305414,413,-1360,-533,-1486,-305,-43,474,102,-252
0,305419,413,-1360,-533,-1486,-305,-43,474,102,-252
0,305425,411,-1361,-539,-1478,-307,-40,474,102,-252
0,305431,411,-1361,-539,-1478,-307,-40,474,102,-252
0,305436,411,-1361,-539,-1478,-307,-40,474,102,-252
0,305441,411,-1361,-539,-1478,-307,-40,474,102,-252
0,305446,410,-1365,-535,-1488,-306,-45,474,102,-252
0,305453,410,-1365,-535,-1488,-306,-45,474,102,-252
0,305459,410,-1365,-535,-1488,-306,-45,474,102,-252
0,305465,410,-1361,-536,-1489,-312,-39,474,102,-252
0,305470,410,-1361,-536,-1489,-312,-39,474,102,-252
0,305477,410,-1361,-536,-1489,-312,-39,474,102,-252
0,305482,409,-1362,-526,-1495,-318,-43,474,102,-252
0,305487,409,-1362,-526,-1495,-318,-43,473,103,-247
0,305492,409,-1362,-526,-1495,-318,-43,473,103,-247
0,305498,409,-1362,-526,-1495,-318,-43,473,103,-247
0,305504,409,-1362,-526,-1495,-318,-43,473,103,-247
0,305509,409,-1362,-526,-1495,-318,-43,473,103,-247
0,305514,409,-1362,-526,-1495,-318,-43,473,103,-247
0,305520,409,-1362,-526,-1495,-318,-43,473,103,-247
0,305526,410,-1363,-531,-1483,-310,-43,473,103,-247
0,305531,410,-1363,-531,-1483,-310,-43,473,103,-247
0,305537,410,-1363,-531,-1483,-310,-43,473,103,-247
0,305542,411,-1360,-537,-1489,-313,-46,473,103,-247
0,305548,411,-1360,-537,-1489,-313,-46,473,103,-247
0,305553,411,-1360,-537,-1489,-313,-46,473,103,-247
0,305558,411,-1360,-537,-1489,-313,-46,473,103,-247
0,305564,409,-1361,-536,-1496,-307,-38,473,103,-247
0,305568,409,-1361,-536,-1496,-307,-38,473,103,-247
0,305574,409,-1361,-536,-1496,-307,-38,473,103,-247
0,305580,409,-1361,-536,-1496,-307,-38,473,103,-247
0,305586,412,-1364,-531,-1486,-311,-44,473,103,-247
0,305592,412,-1364,-531,-1486,-311,-44,473,103,-247
0,305597,412,-1364,-531,-1486,-311,-44,473,103,-247
0,305603,409,-1360,-537,-1486,-304,-40,474,100,-248
0,305608,409,-1360,-537,-1486,-304,-40,474,100,-248
0,305613,409,-1360,-537,-1486,-304,-40,474,100,-248
0,305618,409,-1360,-537,-1486,-304,-40,474,100,-248
0,305625,408,-1363,-533,-1489,-313,-37,474,100,-248
0,305630,408,-1363,-533,-1489,-313,-37,474,100,-248
0,305636,408,-1363,-533,-1489,-313,-37,474,100,-248
0,305641,408,-1363,-533,-1489,-313,-37,474,100,-248
0,305646,412,-1361,-535,-1496,-311,-41,474,100,-248
0,305652,412,-1361,-535,-1496,-311,-41,474,100,-248
0,305657,412,-1361,-535,-1496,-311,-41,474,100,-248
0,305662,410,-1360,-538,-1492,-316,-41,474,100,-248
0,305669,410,-1360,-538,-1492,-316,-41,474,100,-248
0,305674,410,-1360,-538,-1492,-316,-41,474,100,-248
0,305680,410,-1360,-538,-1492,-316,-41,474,100,-248
0,305685,409,-1361,-537,-1492,-317,-44,474,100,-248
0,305690,409,-1361,-537,-1492,-317,-44,474,100,-248
0,305695,409,-1361,-537,-1492,-317,-44,474,100,-248
0,305700,409,-1361,-537,-1492,-317,-44,474,100,-248
0,305707,410,-1361,-532,-1493,-307,-46,474,100,-248
0,305712,410,-1361,-532,-1493,-307,-46,474,100,-248
0,305718,410,-1361,-532,-1493,-307,-46,474,100,-248
0,305724,411,-1363,-535,-1497,-311,-44,474,100,-248
0,305729,411,-1363,-535,-1497,-311,-44,474,100,-248
0,305734,411,-1363,-535,-1497,-311,-44,474,100,-248
0,305739,411,-1363,-535,-1497,-311,-44,474,100,-248
0,305745,411,-1359,-528,-1492,-309,-41,478,104,-244
0,305751,411,-1359,-528,-1492,-309,-41,478,104,-244
0,305756,411,-1359,-528,-1492,-309,-41,478,104,-244
0,305761,411,-1359,-528,-1492,-309,-41,478,104,-244
0,305766,407,-1361,-531,-1489,-308,-39,478,104,-244
0,305771,407,-1361,-531,-1489,-308,-39,478,104,-244
0,305777,407,-1361,-531,-1489,-308,-39,478,104,-244
0,305783,409,-1362,-534,-1487,-312,-43,478,104,-244
0,305788,409,-1362,-534,-1487,-312,-43,478,104,-244
0,305795,409,-1362,-534,-1487,-312,-43,478,104,-244
0,305801,409,-1362,-534,-1487,-312,-43,478,104,-244
0,305806,408,-1360,-530,-1491,-308,-39,478,104,-244
0,305811,408,-1360,-530,-1491,-308,-39,478,104,-244
0,305817,408,-1360,-530,-1491,-308,-39,478,104,-244
0,305822,412,-1364,-537,-1494,-312,-44,478,104,-244
0,305828,412,-1364,-537,-1494,-312,-44,478,104,-244
0,305833,412,-1364,-537,-1494,-312,-44,478,104,-244
0,305839,412,-1364,-537,-1494,-312,-44,478,104,-244
0,305845,410,-1362,-536,-1493,-313,-38,478,104,-244
0,305851,410,-1362,-536,-1493,-313,-38,478,104,-244
0,305856,410,-1362,-536,-1493,-313,-38,478,104,-244
0,305862,410,-1362,-536,-1493,-313,-38,478,104,-244
0,305867,411,-1359,-535,-1489,-313,-43,472,106,-250
0,305872,411,-1359,-535,-1489,-313,-43,472,106,-250
0,305878,411,-1359,-535,-1489,-313,-43,472,106,-250
0,305884,409,-1360,-534,-1492,-308,-42,472,106,-250
0,305889,409,-1360,-534,-1492,-308,-42,472,106,-250
0,305895,409,-1360,-534,-1492,-308,-42,472,106,-250
0,305900,409,-1360,-534,-1492,-308,-42,472,106,-250
0,305905,408,-1362,-538,-1490,-311,-42,472,106,-250
0,305910,408,-1362,-538,-1490,-311,-42,472,106,-250
0,305916,408,-1362,-538,-1490,-311,-42,472,106,-250
0,305922,408,-1362,-538,-1490,-311,-42,472,106,-250
0,305928,409,-1360,-535,-1489,-309,-43,472,106,-250
0,305933,409,-1360,-535,-1489,-309,-43,472,106,-250
0,305938,409,-1360,-535,-1489,-309,-43,472,106,-250
0,305944,410,-1362,-535,-1487,-310,-45,472,106,-250
0,305949,410,-1362,-535,-1487,-310,-45,472,106,-250
0,305954,410,-1362,-535,-1487,-310,-45,472,106,-250
0,305959,410,-1362,-535,-1487,-310,-45,472,106,-250
0,305966,411,-1362,-535,-1486,-308,-52,472,106,-250
0,305971,411,-1362,-535,-1486,-308,-52,472,106,-250
0,305976,411,-1362,-535,-1486,-308,-52,472,106,-250
0,305981,411,-1362,-535,-1486,-308,-52,472,106,-250
0,305986,410,-1362,-528,-1484,-306,-51,470,108,-248
0,305992,410,-1362,-528,-1484,-306,-51,470,108,-248
0,305998,410,-1362,-528,-1484,-306,-51,470,108,-248
0,306003,408,-1360,-535,-1484,-307,-46,470,108,-248
0,306009,408,-1360,-535,-1484,-307,-46,470,108,-248
0,306014,408,-1360,-535,-1484,-307,-46,470,108,-248
0,306020,408,-1360,-535,-1484,-307,-46,470,108,-248
0,306025,409,-1361,-531,-1493,-308,-44,470,108,-248
0,306031,409,-1361,-531,-1493,-308,-44,470,108,-248
0,306037,409,-1361,-531,-1493,-308,-44,470,108,-248
0,306042,412,-1360,-534,-1487,-308,-41,470,108,-248
0,306049,412,-1360,-534,-1487,-308,-41,470,108,-248
0,306054,412,-1360,-534,-1487,-308,-41,470,108,-248
0,306060,412,-1360,-534,-1487,-308,-41,470,108,-248
0,306064,411,-1365,-539,-1487,-309,-44,470,108,-248
0,306070,411,-1365,-539,-1487,-309,-44,470,108,-248
0,306075,411,-1365,-539,-1487,-309,-44,470,108,-248
0,306081,411,-1365,-539,-1487,-309,-44,470,108,-248
0,306086,411,-1363,-531,-1495,-322,-45,470,108,-248
0,306093,411,-1363,-531,-1495,-322,-45,470,108,-248
0,306098,411,-1363,-531,-1495,-322,-45,470,108,-248
0,306103,411,-1358,-535,-1491,-314,-42,471,107,-251
0,306108,411,-1358,-535,-1491,-314,-42,471,107,-251
0,306114,411,-1358,-535,-1491,-314,-42,471,107,-251
0,306119,411,-1358,-535,-1491,-314,-42,471,107,-251
0,306125,408,-1364,-534,-1487,-310,-41,471,107,-251
0,306130,408,-1364,-534,-1487,-310,-41,471,107,-251
0,306137,408,-1364,-534,-1487,-310,-41,471,107,-251
0,306142,408,-1364,-534,-1487,-310,-41,471,107,-251
0,306148,410,-1361,-533,-1484,-309,-48,471,107,-251
0,306153,410,-1361,-533,-1484,-309,-48,471,107,-251
0,306159,410,-1361,-533,-1484,-309,-48,471,107,-251
0,306165,410,-1361,-532,-1484,-310,-46,471,107,-251
0,306170,410,-1361,-532,-1484,-310,-46,471,107,-251
0,306176,410,-1361,-532,-1484,-310,-46,471,107,-251
0,306182,410,-1361,-532,-1484,-310,-46,471,107,-251
0,306187,409,-1360,-530,-1493,-309,-44,471,107,-251
0,306192,409,-1360,-530,-1493,-309,-44,471,107,-251
0,306198,409,-1360,-530,-1493,-309,-44,471,107,-251
0,306203,409,-1364,-533,-1488,-310,-38,471,107,-251
0,306209,409,-1364,-533,-1488,-310,-38,471,107,-251
0,306214,409,-1364,-533,-1488,-310,-38,471,107,-251
0,306220,409,-1364,-533,-1488,-310,-38,471,107,-251
0,306226,409,-1364,-533,-1488,-310,-38,469,105,-255
0,306231,409,-1364,-533,-1488,-310,-38,469,105,-255
0,306236,409,-1364,-533,-1488,-310,-38,469,105,-255
0,306242,409,-1364,-533,-1488,-310,-38,469,105,-255
0,306247,408,-1361,-533,-1480,-312,-35,469,105,-255
0,306252,408,-1361,-533,-1480,-312,-35,469,105,-255
0,306257,408,-1361,-533,-1480,-312,-35,469,105,-255
0,306264,408,-1362,-534,-1486,-310,-43,469,105,-255
0,306269,408,-1362,-534,-1486,-310,-43,469,105,-255
0,306275,408,-1362,-534,-1486,-310,-43,469,105,-255
0,306279,408,-1362,-534,-1486,-310,-43,469,105,-255
0,306285,409,-1362,-535,-1487,-310,-41,469,105,-255
0,306291,409,-1362,-535,-1487,-310,-41,469,105,-255
0,306296,409,-1362,-535,-1487,-310,-41,469,105,-255
0,306301,409,-1362,-535,-1487,-310,-41,469,105,-255
0,306307,412,-1362,-534,-1483,-312,-44,469,105,-255
0,306313,412,-1362,-534,-1483,-312,-44,469,105,-255
0,306319,412,-1362,-534,-1483,-312,-44,469,105,-255
0,306324,408,-1365,-541,-1484,-316,-39,469,105,-255
0,306329,408,-1365,-541,-1484,-316,-39,469,105,-255
0,306334,408,-1365,-541,-1484,-316,-39,469,105,-255
0,306340,408,-1365,-541,-1484,-316,-39,469,105,-255
0,306345,410,-1364,-535,-1483,-312,-44,469,105,-255
0,306351,410,-1364,-535,-1483,-312,-44,469,105,-255
0,306357,410,-1364,-535,-1483,-312,-44,469,105,-255
0,306363,407,-1366,-534,-1490,-307,-46,459,101,-255
0,306368,407,-1366,-534,-1490,-307,-46,459,101,-249
0,306373,407,-1366,-534,-1490,-307,-46,459,101,-249
0,306378,407,-1366,-534,-1490,-307,-46,459,101,-249
0,306384,408,-1362,-537,-1487,-303,-42,459,101,-249
0,306390,408,-1362,-537,-1487,-303,-42,459,101,-249
0,306396,408,-1362,-537,-1487,-303,-42,459,101,-249
0,306401,408,-1362,-537,-1487,-303,-42,459,101,-249
0,306406,410,-1362,-532,-1486,-311,-45,459,101,-249
0,306411,410,-1362,-532,-1486,-311,-45,459,101,-249
0,306417,410,-1362,-532,-1486,-311,-45,459,101,-249
0,306422,410,-1362,-532,-1486,-311,-45,459,101,-249
0,306428,410,-1362,-532,-1486,-311,-45,459,101,-249
0,306433,410,-1362,-532,-1486,-311,-45,459,101,-249
0,306439,410,-1362,-532,-1486,-311,-45,459,101,-249
0,306444,410,-1360,-534,-1489,-307,-45,459,101,-249
0,306449,410,-1360,-534,-1489,-307,-45,459,101,-249
0,306454,410,-1360,-534,-1489,-307,-45,459,101,-249
0,306459,410,-1360,-534,-1489,-307,-45,459,101,-249
0,306465,409,-1360,-534,-1485,-314,-43,459,101,-249
0,306470,409,-1360,-534,-1485,-314,-43,459,101,-249
0,306476,409,-1360,-534,-1485,-314,-43,459,101,-249
0,306481,409,-1360,-534,-1485,-314,-43,459,101,-249
0,306487,409,-1361,-534,-1486,-316,-41,470,104,-248
0,306492,409,-1361,-534,-1486,-316,-41,470,104,-248
0,306497,409,-1361,-534,-1486,-316,-41,470,104,-248
0,306503,411,-1363,-532,-1487,-308,-46,470,104,-248
0,306508,411,-1363,-532,-1487,-308,-46,470,104,-248
0,306513,411,-1363,-532,-1487,-308,-46,470,104,-248
0,306519,411,-1363,-532,-1487,-308,-46,470,104,-248
0,306525,410,-1360,-536,-1486,-311,-44,470,104,-248
0,306530,410,-1360,-536,-1486,-311,-44,470,104,-248
0,306536,410,-1360,-536,-1486,-311,-44,470,104,-248
0,306541,410,-1360,-536,-1486,-311,-44,470,104,-248
0,306547,410,-1361,-533,-1484,-312,-46,470,104,-248
0,306552,410,-1361,-533,-1484,-312,-46,470,104,-248
0,306557,410,-1361,-533,-1484,-312,-46,470,104,-248
0,306564,410,-1359,-534,-1487,-311,-48,470,104,-248
0,306569,410,-1359,-534,-1487,-311,-48,470,104,-248
0,306574,410,-1359,-534,-1487,-311,-48,470,104,-248
0,306580,410,-1359,-534,-1487,-311,-48,470,104,-248
0,306585,409,-1361,-530,-1483,-310,-47,470,104,-248
0,306590,409,-1361,-530,-1483,-310,-47,470,104,-248
0,306595,409,-1361,-530,-1483,-310,-47,470,104,-248
0,306601,409,-1361,-530,-1483,-310,-47,470,104,-248
0,306607,409,-1360,-536,-1486,-316,-52,478,112,-246
0,306612,409,-1360,-536,-1486,-316,-52,478,112,-246
0,306617,409,-1360,-536,-1486,-316,-52,478,112,-246
0,306622,409,-1360,-536,-1486,-316,-52,478,112,-246
0,306628,411,-1362,-533,-1486,-312,-52,478,112,-246
0,306633,411,-1362,-533,-1486,-312,-52,478,112,-246
0,306638,411,-1362,-533,-1486,-312,-52,478,112,-246
0,306644,412,-1361,-533,-1491,-308,-47,478,112,-246
0,306650,412,-1361,-533,-1491,-308,-47,478,112,-246
0,306656,412,-1361,-533,-1491,-308,-47,478,112,-246
0,306661,412,-1361,-533,-1491,-308,-47,478,112,-246
0,306666,410,-1359,-534,-1491,-311,-49,478,112,-246
0,306671,410,-1359,-534,-1491,-311,-49,478,112,-246
0,306676,410,-1359,-534,-1491,-311,-49,478,112,-246
0,306682,410,-1359,-534,-1491,-311,-49,478,112,-246
0,306688,409,-1361,-533,-1491,-308,-44,478,112,-246
0,306694,409,-1361,-533,-1491,-308,-44,478,112,-246
0,306699,409,-1361,-533,-1491,-308,-44,478,112,-246
0,306705,407,-1359,-538,-1494,-316,-44,478,112,-246
0,306710,407,-1359,-538,-1494,-316,-44,478,112,-246
0,306715,407,-1359,-538,-1494,-316,-44,478,112,-246
0,306721,407,-1359,-538,-1494,-316,-44,478,112,-246
0,306726,412,-1358,-531,-1491,-305,-47,471,111,-251
0,306732,412,-1358,-531,-1491,-305,-47,471,111,-251
0,306738,412,-1358,-531,-1491,-305,-47,471,111,-251
0,306743,410,-1361,-536,-1494,-302,-45,471,111,-251
0,306749,410,-1361,-536,-1494,-302,-45,471,111,-251
0,306754,410,-1361,-536,-1494,-302,-45,471,111,-251
0,306760,410,-1361,-536,-1494,-302,-45,471,111,-251
0,306766,409,-1360,-534,-1496,-311,-46,471,111,-251
0,306771,409,-1360,-534,-1496,-311,-46,471,111,-251
0,306778,409,-1360,-534,-1496,-311,-46,471,111,-251
0,306783,408,-1362,-529,-1500,-310,-49,471,111,-251
0,306789,408,-1362,-529,-1500,-310,-49,471,111,-251
0,306793,408,-1362,-529,-1500,-310,-49,471,111,-251
0,306799,408,-1362,-529,-1500,-310,-49,471,111,-251
0,306804,410,-1363,-536,-1492,-311,-47,471,111,-251
0,306810,410,-1363,-536,-1492,-311,-47,471,111,-251
0,306816,410,-1363,-536,-1492,-311,-47,471,111,-251
0,306821,410,-1363,-536,-1492,-311,-47,471,111,-251
0,306826,408,-1363,-534,-1490,-312,-45,471,111,-251
0,306832,408,-1363,-534,-1490,-312,-45,471,111,-251
0,306837,408,-1363,-534,-1490,-312,-45,471,111,-251
0,306842,408,-1363,-534,-1490,-312,-45,471,111,-251
0,306848,406,-1361,-534,-1485,-301,-48,472,112,-252
0,306853,406,-1361,-534,-1485,-301,-48,472,112,-252
0,306859,406,-1361,-534,-1485,-301,-48,472,112,-252
0,306867,409,-1361,-525,-1487,-309,-44,472,112,-252
0,306874,409,-1361,-525,-1487,-309,-44,472,112,-252
0,306880,409,-1361,-525,-1487,-309,-44,472,112,-252
0,306885,410,-1361,-529,-1491,-309,-45,472,112,-252
0,306891,410,-1361,-529,-1491,-309,-45,472,112,-252
0,306896,410,-1361,-529,-1491,-309,-45,472,112,-252
0,306903,410,-1361,-529,-1491,-309,-45,472,112,-252
0,306908,410,-1359,-537,-1486,-306,-47,472,112,-252
0,306914,410,-1359,-537,-1486,-306,-47,472,112,-252
0,306919,410,-1359,-537,-1486,-306,-47,472,112,-252
0,306925,410,-1363,-531,-1487,-310,-41,472,112,-252
0,306930,410,-1363,-531,-1487,-310,-41,472,112,-252
0,306935,410,-1363,-531,-1487,-310,-41,472,112,-252
0,306940,410,-1363,-531,-1487,-310,-41,472,112,-252
0,306946,407,-1359,-535,-1488,-313,-49,472,112,-252
0,306951,407,-1359,-535,-1488,-313,-49,472,112,-252
0,306956,407,-1359,-535,-1488,-313,-49,472,112,-252
0,306962,407,-1359,-535,-1488,-313,-49,472,112,-252
0,306968,407,-1359,-535,-1488,-313,-49,472,112,-252
0,306973,407,-1359,-535,-1488,-313,-49,472,112,-252
0,306979,407,-1359,-535,-1488,-313,-49,472,112,-252
0,306984,410,-1359,-527,-1485,-308,-43,474,112,-252
0,306991,410,-1359,-527,-1485,-308,-43,474,112,-252
0,306996,410,-1359,-527,-1485,-308,-43,474,112,-252
0,307002,410,-1359,-527,-1485,-308,-43,474,112,-252
0,307007,410,-1360,-531,-1487,-310,-42,474,112,-252
0,307012,410,-1360,-531,-1487,-310,-42,474,112,-252
0,307017,410,-1360,-531,-1487,-310,-42,474,112,-252
0,307022,413,-1359,-533,-1486,-300,-46,474,112,-252
0,307027,413,-1359,-533,-1486,-300,-46,474,112,-252
0,307034,413,-1359,-533,-1486,-300,-46,474,112,-252
0,307039,413,-1359,-533,-1486,-300,-46,474,112,-252
0,307044,411,-1363,-536,-1487,-310,-46,474,112,-252
0,307049,411,-1363,-536,-1487,-310,-46,474,112,-252
0,307054,411,-1363,-536,-1487,-310,-46,474,112,-252
0,307059,411,-1363,-536,-1487,-310,-46,474,112,-252
0,307065,411,-1360,-537,-1482,-312,-47,474,112,-252
0,307070,411,-1360,-537,-1482,-312,-47,474,112,-252
0,307076,411,-1360,-537,-1482,-312,-47,474,112,-252
0,307082,411,-1360,-537,-1482,-312,-47,474,112,-252
0,307087,410,-1363,-536,-1485,-318,-48,474,112,-252
0,307093,410,-1363,-536,-1485,-318,-48,474,112,-252
0,307098,410,-1363,-536,-1485,-318,-48,474,112,-252
0,307104,411,-1363,-530,-1485,-309,-52,471,107,-251
0,307109,411,-1363,-530,-1485,-309,-52,471,107,-251
0,307116,411,-1363,-530,-1485,-309,-52,471,107,-251
0,307121,411,-1363,-530,-1485,-309,-52,471,107,-251
0,307126,410,-1362,-526,-1484,-306,-50,471,107,-251
0,307132,410,-1362,-526,-1484,-306,-50,471,107,-251
0,307137,410,-1362,-526,-1484,-306,-50,471,107,-251
0,307142,410,-1362,-526,-1484,-306,-50,471,107,-251
0,307148,410,-1356,-531,-1492,-304,-52,471,107,-251
0,307153,410,-1356,-531,-1492,-304,-52,471,107,-251
0,307159,410,-1356,-531,-1492,-304,-52,471,107,-251
0,307164,411,-1363,-532,-1492,-309,-54,471,107,-251
0,307170,411,-1363,-532,-1492,-309,-54,471,107,-251
0,307175,411,-1363,-532,-1492,-309,-54,471,107,-251
0,307181,411,-1363,-532,-1492,-309,-54,471,107,-251
0,307187,410,-1364,-534,-1490,-316,-41,471,107,-251
0,307192,410,-1364,-534,-1490,-316,-41,471,107,-251
0,307198,410,-1364,-534,-1490,-316,-41,471,107,-251
0,307204,411,-1361,-529,-1492,-315,-40,471,107,-251
0,307209,411,-1361,-529,-1492,-315,-40,471,107,-251
0,307214,411,-1361,-529,-1492,-315,-40,471,107,-251
0,307219,411,-1361,-529,-1492,-315,-40,471,107,-251
0,307224,409,-1361,-530,-1482,-311,-49,470,108,-254
0,307229,409,-1361,-530,-1482,-311,-49,470,108,-254
0,307234,409,-1361,-530,-1482,-311,-49,470,108,-254
0,307240,409,-1361,-530,-1482,-311,-49,470,108,-254
0,307246,408,-1361,-531,-1485,-310,-50,470,108,-254
0,307252,408,-1361,-531,-1485,-310,-50,470,108,-254
0,307257,408,-1361,-531,-1485,-310,-50,470,108,-254
0,307262,408,-1361,-531,-1485,-310,-50,470,108,-254
0,307267,408,-1362,-530,-1483,-312,-52,470,108,-254
0,307273,408,-1362,-530,-1483,-312,-52,470,108,-254
0,307279,408,-1362,-530,-1483,-312,-52,470,108,-254
0,307284,407,-1360,-532,-1487,-312,-47,470,108,-254
0,307290,407,-1360,-532,-1487,-312,-47,470,108,-254
0,307296,407,-1360,-532,-1487,-312,-47,470,108,-254
0,307301,407,-1360,-532,-1487,-312,-47,470,108,-254
0,307306,412,-1364,-534,-1487,-302,-45,470,108,-254
0,307311,412,-1364,-534,-1487,-302,-45,470,108,-254
0,307316,412,-1364,-534,-1487,-302,-45,470,108,-254
0,307321,412,-1364,-534,-1487,-302,-45,470,108,-254
0,307329,412,-1363,-535,-1486,-307,-39,470,108,-254
0,307334,412,-1363,-535,-1486,-307,-39,470,108,-254
0,307340,412,-1363,-535,-1486,-307,-39,470,108,-254
0,307345,407,-1361,-531,-1489,-305,-47,477,113,-245
0,307350,407,-1361,-531,-1489,-305,-47,477,113,-245
0,307355,407,-1361,-531,-1489,-305,-47,477,113,-245
0,307361,407,-1361,-531,-1489,-305,-47,477,113,-245
0,307365,409,-1358,-532,-1490,-303,-49,477,113,-245
0,307372,409,-1358,-532,-1490,-303,-49,477,113,-245
0,307377,409,-1358,-532,-1490,-303,-49,477,113,-245
0,307382,409,-1358,-532,-1490,-303,-49,477,113,-245
0,307388,411,-1359,-527,-1495,-304,-44,477,113,-245
0,307393,411,-1359,-527,-1495,-304,-44,477,113,-245
0,307398,411,-1359,-527,-1495,-304,-44,477,113,-245
0,307404,410,-1364,-530,-1492,-305,-38,477,113,-245
0,307409,410,-1364,-530,-1492,-305,-38,477,113,-245
0,307415,410,-1364,-530,-1492,-305,-38,477,113,-245
0,307421,410,-1364,-530,-1492,-305,-38,477,113,-245
0,307426,406,-1361,-538,-1493,-311,-43,477,113,-245
0,307432,406,-1361,-538,-1493,-311,-43,477,113,-245
0,307437,406,-1361,-538,-1493,-311,-43,477,113,-245
0,307443,411,-1360,-534,-1487,-304,-39,477,113,-245
0,307448,411,-1360,-534,-1487,-304,-39,477,113,-245
0,307453,411,-1360,-534,-1487,-304,-39,477,113,-245
0,307460,411,-1360,-534,-1487,-304,-39,477,113,-245
0,307465,411,-1361,-533,-1488,-320,-43,474,104,-250
0,307472,411,-1361,-533,-1488,-320,-43,474,104,-250
0,307477,411,-1361,-533,-1488,-320,-43,474,104,-250
0,307484,411,-1363,-531,-1484,-312,-44,474,104,-250
0,307489,411,-1363,-531,-1484,-312,-44,474,104,-250
0,307494,411,-1363,-531,-1484,-312,-44,474,104,-250
0,307502,411,-1363,-531,-1484,-312,-44,474,104,-250
0,307528,409,-1359,-533,-1494,-313,-46,474,104,-250
0,307542,409,-1359,-533,-1494,-313,-46,474,104,-250
0,307547,406,-1362,-530,-1491,-314,-44,474,104,-250
0,307565,409,-1359,-537,-1482,-309,-51,474,104,-250
0,307582,409,-1359,-537,-1482,-309,-51,474,104,-250
0,307588,407,-1358,-534,-1479,-304,-50,474,104,-250
0,307594,407,-1358,-534,-1479,-304,-50,474,104,-250
0,307598,407,-1358,-534,-1479,-304,-50,474,104,-250
0,307603,409,-1363,-537,-1486,-316,-39,474,110,-246
0,307608,409,-1363,-537,-1486,-316,-39,474,110,-246
0,307613,409,-1363,-537,-1486,-316,-39,474,110,-246
0,307618,409,-1363,-537,-1486,-316,-39,474,110,-246
0,307623,408,-1362,-534,-1488,-309,-41,474,110,-246
0,307628,408,-1362,-534,-1488,-309,-41,474,110,-246
0,307633,408,-1362,-534,-1488,-309,-41,474,110,-246
0,307638,408,-1362,-534,-1488,-309,-41,474,110,-246
0,307642,408,-1362,-534,-1488,-309,-41,474,110,-246
0,307647,407,-1361,-534,-1483,-311,-47,474,110,-246
0,307652,407,-1361,-534,-1483,-311,-47,474,110,-246
0,307657,407,-1361,-534,-1483,-311,-47,474,110,-246
0,307661,407,-1361,-534,-1483,-311,-47,474,110,-246
0,307666,411,-1363,-533,-1484,-309,-45,474,110,-246
0,307672,411,-1363,-533,-1484,-309,-45,474,110,-246
0,307676,411,-1363,-533,-1484,-309,-45,474,110,-246
0,307681,411,-1363,-533,-1484,-309,-45,474,110,-246
0,307685,410,-1360,-536,-1489,-311,-40,474,110,-246
0,307690,410,-1360,-536,-1489,-311,-40,474,110,-246
0,307694,410,-1360,-536,-1489,-311,-40,474,110,-246
0,307699,410,-1360,-536,-1489,-311,-40,474,110,-246
0,307703,410,-1363,-532,-1491,-315,-41,474,110,-246
0,307707,410,-1363,-532,-1491,-315,-41,474,110,-246
0,307713,410,-1363,-532,-1491,-315,-41,474,110,-246
0,307718,410,-1363,-532,-1491,-315,-41,474,110,-246
0,307722,410,-1363,-532,-1491,-315,-41,474,110,-246
0,307727,410,-1359,-529,-1488,-309,-50,476,102,-248
0,307732,410,-1359,-529,-1488,-309,-50,476,102,-248
0,307737,410,-1359,-529,-1488,-309,-50,476,102,-248
0,307742,410,-1359,-529,-1488,-309,-50,476,102,-248
0,307747,409,-1359,-532,-1486,-310,-48,476,102,-248
0,307751,409,-1359,-532,-1486,-310,-48,476,102,-248
0,307757,409,-1359,-532,-1486,-310,-48,476,102,-248
0,307762,409,-1359,-532,-1486,-310,-48,476,102,-248
0,307767,406,-1359,-535,-1488,-309,-38,476,102,-248
0,307772,406,-1359,-535,-1488,-309,-38,476,102,-248
0,307777,406,-1359,-535,-1488,-309,-38,476,102,-248
0,307782,406,-1359,-535,-1488,-309,-38,476,102,-248
0,307787,408,-1362,-532,-1489,-308,-40,476,102,-248
0,307792,408,-1362,-532,-1489,-308,-40,476,102,-248
0,307796,408,-1362,-532,-1489,-308,-40,476,102,-248
0,307802,408,-1362,-532,-1489,-308,-40,476,102,-248
0,307806,409,-1362,-535,-1490,-312,-43,476,102,-248
0,307811,409,-1362,-535,-1490,-312,-43,476,102,-248
0,307816,409,-1362,-535,-1490,-312,-43,476,102,-248
0,307821,409,-1362,-535,-1490,-312,-43,476,102,-248
0,307826,409,-1362,-532,-1482,-310,-44,476,102,-248
0,307831,409,-1362,-532,-1482,-310,-44,476,102,-248
0,307836,409,-1362,-532,-1482,-310,-44,476,102,-248
0,307842,409,-1362,-532,-1482,-310,-44,476,102,-248
0,307847,410,-1361,-530,-1485,-313,-46,470,110,-250
0,307852,410,-1361,-530,-1485,-313,-46,470,110,-250
0,307857,410,-1361,-530,-1485,-313,-46,470,110,-250
0,307862,410,-1361,-530,-1485,-313,-46,470,110,-250
0,307867,410,-1361,-529,-1485,-306,-42,470,110,-250
0,307872,410,-1361,-529,-1485,-306,-42,470,110,-250
0,307878,410,-1361,-529,-1485,-306,-42,470,110,-250
0,307884,408,-1362,-532,-1489,-304,-44,470,110,-250
0,307890,408,-1362,-532,-1489,-304,-44,470,110,-250
0,307895,408,-1362,-532,-1489,-304,-44,470,110,-250
0,307900,408,-1362,-532,-1489,-304,-44,470,110,-250
0,307905,410,-1361,-533,-1486,-312,-42,470,110,-250
0,307911,410,-1361,-533,-1486,-312,-42,470,110,-250
0,307916,410,-1361,-533,-1486,-312,-42,470,110,-250
0,307922,410,-1361,-533,-1486,-312,-42,470,110,-250
0,307928,411,-1361,-532,-1493,-312,-50,470,110,-250
0,307934,411,-1361,-532,-1493,-312,-50,470,110,-250
0,307939,411,-1361,-532,-1493,-312,-50,470,110,-250
0,307945,409,-1364,-537,-1485,-314,-48,470,110,-250
0,307951,409,-1364,-537,-1485,-314,-48,470,110,-250
0,307957,409,-1364,-537,-1485,-314,-48,470,110,-250
0,307962,409,-1364,-537,-1485,-314,-48,470,110,-250
0,307969,411,-1360,-535,-1486,-313,-44,472,114,-258
0,307975,411,-1360,-535,-1486,-313,-44,472,114,-258
0,307980,411,-1360,-535,-1486,-313,-44,472,114,-258
0,307987,411,-1358,-533,-1488,-305,-48,472,114,-258
0,307992,411,-1358,-533,-1488,-305,-48,472,114,-258
0,307998,411,-1358,-533,-1488,-305,-48,472,114,-258
0,308003,409,-1361,-533,-1489,-309,-41,472,114,-258
0,308008,409,-1361,-533,-1489,-309,-41,472,114,-258
0,308014,409,-1361,-533,-1489,-309,-41,472,114,-258
0,308020,409,-1361,-533,-1489,-309,-41,472,114,-258
0,308025,410,-1360,-534,-1483,-314,-44,472,114,-258
0,308030,410,-1360,-534,-1483,-314,-44,472,114,-258
0,308035,410,-1360,-534,-1483,-314,-44,472,114,-258
0,308040,410,-1360,-534,-1483,-314,-44,472,114,-258
0,308045,410,-1363,-535,-1486,-302,-39,472,114,-258
0,308050,410,-1363,-535,-1486,-302,-39,472,114,-258
0,308056,410,-1363,-535,-1486,-302,-39,472,114,-258
0,308062,410,-1363,-535,-1486,-302,-39,472,114,-258
0,308067,407,-1361,-534,-1489,-310,-42,472,114,-258
0,308073,407,-1361,-534,-1489,-310,-42,472,114,-258
0,308079,407,-1361,-534,-1489,-310,-42,472,114,-258
0,308086,408,-1361,-536,-1498,-310,-47,472,114,-258
0,308092,408,-1361,-536,-1498,-310,-47,472,114,-258
0,308099,408,-1361,-536,-1498,-310,-47,472,114,-258
0,308104,408,-1361,-536,-1498,-310,-47,475,111,-249
0,308110,408,-1361,-536,-1498,-310,-47,475,111,-249
0,308115,408,-1361,-536,-1498,-310,-47,475,111,-249
0,308121,408,-1361,-536,-1498,-310,-47,475,111,-249
0,308126,407,-1359,-535,-1492,-312,-46,475,111,-249
0,308131,407,-1359,-535,-1492,-312,-46,475,111,-249
0,308137,407,-1359,-535,-1492,-312,-46,475,111,-249
0,308143,407,-1359,-535,-1492,-312,-46,475,111,-249
0,308148,412,-1360,-533,-1493,-309,-45,475,111,-249
0,308154,412,-1360,-533,-1493,-309,-45,475,111,-249
0,308159,412,-1360,-533,-1493,-309,-45,475,111,-249
0,308165,408,-1361,-534,-1488,-308,-49,475,111,-249
0,308170,408,-1361,-534,-1488,-308,-49,475,111,-249
0,308176,408,-1361,-534,-1488,-308,-49,475,111,-249
0,308182,408,-1361,-534,-1488,-308,-49,475,111,-249
0,308187,410,-1361,-536,-1488,-312,-42,475,111,-249
0,308192,410,-1361,-536,-1488,-312,-42,475,111,-249
0,308198,410,-1361,-536,-1488,-312,-42,475,111,-249
0,308203,410,-1361,-536,-1488,-312,-42,475,111,-249
0,308208,413,-1362,-529,-1485,-308,-41,475,111,-249
0,308213,413,-1362,-529,-1485,-308,-41,475,111,-249
0,308219,413,-1362,-529,-1485,-308,-41,475,111,-249
0,308226,412,-1358,-531,-1484,-309,-48,470,108,-252
0,308231,412,-1358,-531,-1484,-309,-48,470,108,-252
0,308237,412,-1358,-531,-1484,-309,-48,470,108,-252
0,308242,412,-1358,-531,-1484,-309,-48,470,108,-252
0,308248,408,-1361,-531,-1488,-313,-37,470,108,-252
