imu,time,ax,ay,az,gx,gy,gz,mx,my,mz
0,103329,436,693,1543,-1480,-304,-45,165,133,157
0,103339,439,693,1544,-1483,-304,-40,165,133,157
0,103347,439,693,1544,-1483,-304,-40,165,133,157
0,103356,439,693,1544,-1483,-304,-40,165,133,157
0,103365,439,692,1540,-1483,-302,-48,165,133,157
0,103373,439,692,1540,-1483,-302,-48,165,133,157
0,103380,438,692,1544,-1487,-303,-48,165,133,157
0,103389,438,692,1544,-1487,-303,-48,165,133,157
0,103396,438,692,1544,-1487,-303,-48,165,133,157
0,103403,435,692,1544,-1487,-304,-45,165,133,157
0,103409,435,692,1544,-1487,-304,-45,165,133,157
0,103415,435,692,1544,-1487,-304,-45,165,133,157
0,103421,439,691,1543,-1485,-300,-47,164,130,148
0,103428,439,691,1543,-1485,-300,-47,164,130,148
0,103434,439,691,1543,-1485,-300,-47,164,130,148
0,103441,440,690,1541,-1479,-298,-36,164,130,148
0,103446,440,690,1541,-1479,-298,-36,164,130,148
0,103452,440,690,1541,-1479,-298,-36,164,130,148
0,103458,439,693,1543,-1485,-304,-38,164,130,148
0,103464,439,693,1543,-1485,-304,-38,164,130,148
0,103471,439,693,1543,-1485,-304,-38,164,130,148
0,103478,437,692,1540,-1487,-305,-44,164,130,148
0,103484,437,692,1540,-1487,-305,-44,164,130,148
0,103490,437,692,1540,-1487,-305,-44,164,130,148
0,103496,437,692,1540,-1487,-305,-44,164,130,148
0,103502,438,694,1539,-1490,-302,-44,164,130,148
0,103508,438,694,1539,-1490,-302,-44,164,130,148
0,103516,438,694,1539,-1490,-302,-44,164,130,148
0,103522,437,691,1543,-1488,-303,-45,164,130,148
0,103527,437,691,1543,-1488,-303,-45,164,130,148
0,103534,437,691,1543,-1488,-303,-45,164,130,148
0,103539,442,696,1549,-1489,-305,-42,165,131,157
0,103546,442,696,1549,-1489,-305,-42,165,131,157
0,103553,442,696,1549,-1489,-305,-42,165,131,157
0,103558,439,695,1547,-1491,-299,-39,165,131,157
0,103564,439,695,1547,-1491,-299,-39,165,131,157
0,103569,439,695,1547,-1491,-299,-39,165,131,157
0,103575,439,695,1547,-1491,-299,-39,165,131,157
0,103580,438,693,1543,-1491,-301,-48,165,131,157
0,103586,438,693,1543,-1491,-301,-48,165,131,157
0,103591,438,693,1543,-1491,-301,-48,165,131,157
0,103598,440,692,1543,-1490,-301,-50,165,131,157
0,103603,440,692,1543,-1490,-301,-50,165,131,157
0,103609,440,692,1543,-1490,-301,-50,165,131,157
0,103615,440,692,1543,-1490,-301,-50,165,131,157
0,103620,440,692,1543,-1490,-301,-50,165,131,157
0,103627,440,692,1543,-1490,-301,-50,165,131,157
0,103632,440,692,1543,-1490,-301,-50,165,131,157
0,103639,440,696,1540,-1481,-297,-41,165,131,157
0,103644,440,696,1540,-1481,-297,-41,165,131,157
0,103650,440,696,1540,-1481,-297,-41,165,131,157
0,103656,440,696,1540,-1481,-297,-41,165,131,157
0,103662,438,692,1539,-1484,-307,-46,165,131,157
0,103668,438,692,1539,-1484,-307,-46,165,131,157
0,103674,438,692,1539,-1484,-307,-46,165,131,157
0,103680,437,693,1541,-1479,-308,-49,161,137,155
0,103686,437,693,1541,-1479,-308,-49,161,137,155
0,103691,437,693,1541,-1479,-308,-49,161,137,155
0,103696,437,693,1541,-1479,-308,-49,161,137,155
0,103701,437,693,1541,-1483,-304,-47,161,137,155
0,103707,437,693,1541,-1483,-304,-47,161,137,155
0,103715,437,693,1541,-1483,-304,-47,161,137,155
0,103724,439,695,1541,-1484,-307,-42,161,137,155
0,103731,439,695,1541,-1484,-307,-42,161,137,155
0,103738,440,692,1547,-1491,-304,-47,161,137,155
0,103744,440,692,1547,-1491,-304,-47,161,137,155
0,103749,440,692,1547,-1491,-304,-47,161,137,155
0,103754,440,692,1547,-1491,-304,-47,161,137,155
0,103760,439,694,1540,-1481,-305,-43,161,137,155
0,103766,439,694,1540,-1481,-305,-43,161,137,155
0,103771,439,694,1540,-1481,-305,-43,161,137,155
0,103777,439,694,1540,-1481,-305,-43,161,137,155
0,103782,440,695,1542,-1482,-302,-38,161,137,155
0,103788,440,695,1542,-1482,-302,-38,161,137,155
0,103793,440,695,1542,-1482,-302,-38,161,137,155
0,103799,438,695,1548,-1483,-302,-40,167,133,153
0,103805,438,695,1548,-1483,-302,-40,167,133,153
0,103811,438,695,1548,-1483,-302,-40,167,133,153
0,103816,438,695,1548,-1483,-302,-40,167,133,153
0,103821,437,687,1543,-1484,-301,-45,167,133,153
0,103827,437,687,1543,-1484,-301,-45,167,133,153
0,103832,437,687,1543,-1484,-301,-45,167,133,153
0,103838,440,693,1545,-1483,-310,-44,167,133,153
0,103844,440,693,1545,-1483,-310,-44,167,133,153
0,103849,440,693,1545,-1483,-310,-44,167,133,153
0,103855,440,693,1545,-1483,-310,-44,167,133,153
0,103861,436,695,1543,-1489,-302,-49,167,133,153
0,103866,436,695,1543,-1489,-302,-49,167,133,153
0,103872,436,695,1543,-1489,-302,-49,167,133,153
0,103877,439,694,1542,-1488,-304,-47,167,133,153
0,103884,439,694,1542,-1488,-304,-47,167,133,153
0,103889,439,694,1542,-1488,-304,-47,167,133,153
0,103895,439,694,1542,-1488,-304,-47,167,133,153
0,103901,438,695,1538,-1484,-300,-49,167,133,153
0,103907,438,695,1538,-1484,-300,-49,167,133,153
0,103912,438,695,1538,-1484,-300,-49,167,133,153
0,103918,438,693,1542,-1489,-302,-43,167,125,155
0,103923,438,693,1542,-1489,-302,-43,167,125,155
0,103929,438,693,1542,-1489,-302,-43,167,125,155
0,103934,438,693,1542,-1489,-302,-43,167,125,155
0,103941,441,690,1543,-1479,-307,-42,167,125,155
0,103947,441,690,1543,-1479,-307,-42,167,125,155
0,103952,441,690,1543,-1479,-307,-42,167,125,155
0,103958,438,695,1542,-1491,-307,-40,167,125,155
0,103963,438,695,1542,-1491,-307,-40,167,125,155
0,103970,438,695,1542,-1491,-307,-40,167,125,155
0,103975,438,695,1542,-1491,-307,-40,167,125,155
0,103982,439,694,1543,-1492,-303,-42,167,125,155
0,103987,439,694,1543,-1492,-303,-42,167,125,155
0,103992,439,694,1543,-1492,-303,-42,167,125,155
0,103997,439,693,1544,-1489,-302,-50,167,125,155
0,104002,439,693,1544,-1489,-302,-50,167,125,155
0,104007,439,693,1544,-1489,-302,-50,167,125,155
0,104012,439,693,1544,-1489,-302,-50,167,125,155
0,104017,439,692,1539,-1488,-305,-47,167,125,155
0,104023,439,692,1539,-1488,-305,-47,167,125,155
0,104028,439,692,1539,-1488,-305,-47,167,125,155
0,104034,439,692,1539,-1488,-305,-47,167,125,155
0,104039,438,693,1545,-1494,-302,-47,164,132,160
0,104043,438,693,1545,-1494,-302,-47,164,132,160
0,104048,438,693,1545,-1494,-302,-47,164,132,160
0,104054,438,693,1545,-1494,-302,-47,164,132,160
0,104059,442,693,1544,-1488,-305,-42,164,132,160
0,104065,442,693,1544,-1488,-305,-42,164,132,160
0,104070,442,693,1544,-1488,-305,-42,164,132,160
0,104076,442,693,1544,-1488,-305,-42,164,132,160
0,104082,442,691,1542,-1483,-306,-42,164,132,160
0,104087,442,691,1542,-1483,-306,-42,164,132,160
0,104093,442,691,1542,-1483,-306,-42,164,132,160
0,104099,440,693,1539,-1483,-304,-42,164,132,160
0,104105,440,693,1539,-1483,-304,-42,164,132,160
0,104112,440,693,1539,-1483,-304,-42,164,132,160
0,104118,436,692,1542,-1488,-300,-41,164,132,160
0,104124,436,692,1542,-1488,-300,-41,164,132,160
0,104129,436,692,1542,-1488,-300,-41,164,132,160
0,104134,436,692,1542,-1488,-300,-41,164,132,160
0,104140,440,691,1542,-1486,-303,-37,164,132,160
0,104147,440,691,1542,-1486,-303,-37,164,132,160
0,104154,440,691,1542,-1486,-303,-37,164,132,160
0,104159,438,695,1540,-1486,-303,-42,164,132,160
0,104165,438,695,1540,-1486,-303,-42,164,132,160
0,104171,438,695,1540,-1486,-303,-42,164,132,160
0,104177,439,693,1543,-1482,-304,-47,164,132,160
0,104182,439,693,1543,-1482,-304,-47,166,140,156
0,104188,439,693,1543,-1482,-304,-47,166,140,156
0,104194,439,693,1543,-1482,-304,-47,166,140,156
0,104200,436,692,1546,-1482,-301,-48,166,140,156
0,104205,436,692,1546,-1482,-301,-48,166,140,156
0,104211,436,692,1546,-1482,-301,-48,166,140,156
0,104216,436,692,1546,-1482,-301,-48,166,140,156
0,104221,436,692,1546,-1482,-301,-48,166,140,156
0,104226,436,692,1546,-1482,-301,-48,166,140,156
0,104232,436,692,1546,-1482,-301,-48,166,140,156
0,104239,438,690,1541,-1489,-308,-44,166,140,156
0,104245,438,690,1541,-1489,-308,-44,166,140,156
0,104251,438,690,1541,-1489,-308,-44,166,140,156
0,104256,438,690,1541,-1489,-308,-44,166,140,156
0,104262,439,691,1542,-1480,-305,-46,166,140,156
0,104267,439,691,1542,-1480,-305,-46,166,140,156
0,104273,439,691,1542,-1480,-305,-46,166,140,156
0,104280,438,694,1545,-1481,-300,-44,166,140,156
0,104286,438,694,1545,-1481,-300,-44,166,140,156
0,104292,438,694,1545,-1481,-300,-44,166,140,156
0,104298,438,694,1545,-1481,-300,-44,169,135,157
0,104303,438,694,1545,-1481,-300,-44,169,135,157
0,104309,438,694,1545,-1481,-300,-44,169,135,157
0,104315,438,694,1545,-1481,-300,-44,169,135,157
0,104321,439,693,1547,-1485,-305,-50,169,135,157
0,104327,439,693,1547,-1485,-305,-50,169,135,157
0,104332,439,693,1547,-1485,-305,-50,169,135,157
0,104339,441,692,1543,-1485,-305,-48,169,135,157
0,104344,441,692,1543,-1485,-305,-48,169,135,157
0,104349,441,692,1543,-1485,-305,-48,169,135,157
0,104355,441,692,1543,-1485,-305,-48,169,135,157
0,104360,439,691,1547,-1492,-308,-45,169,135,157
0,104366,439,691,1547,-1492,-308,-45,169,135,157
0,104371,439,691,1547,-1492,-308,-45,169,135,157
0,104376,439,691,1547,-1492,-308,-45,169,135,157
0,104381,437,694,1543,-1486,-302,-42,169,135,157
0,104385,437,694,1543,-1486,-302,-42,169,135,157
0,104390,437,694,1543,-1486,-302,-42,169,135,157
0,104395,437,694,1543,-1486,-302,-42,169,135,157
0,104400,437,692,1539,-1479,-302,-44,169,135,157
0,104406,437,692,1539,-1479,-302,-44,169,135,157
0,104410,437,692,1539,-1479,-302,-44,169,135,157
0,104416,437,692,1539,-1479,-302,-44,169,135,157
0,104421,439,693,1545,-1482,-307,-47,176,134,154
0,104425,439,693,1545,-1482,-307,-47,176,134,154
0,104430,439,693,1545,-1482,-307,-47,176,134,154
0,104435,439,693,1545,-1482,-307,-47,176,134,154
0,104440,438,694,1548,-1490,-310,-45,176,134,154
0,104445,438,694,1548,-1490,-310,-45,176,134,154
0,104451,438,694,1548,-1490,-310,-45,176,134,154
0,104456,438,694,1548,-1490,-310,-45,176,134,154
0,104462,435,695,1545,-1482,-306,-47,176,134,154
0,104467,435,695,1545,-1482,-306,-47,176,134,154
0,104472,435,695,1545,-1482,-306,-47,176,134,154
0,104477,435,695,1545,-1482,-306,-47,176,134,154
0,104482,439,692,1546,-1483,-306,-43,176,134,154
0,104487,439,692,1546,-1483,-306,-43,176,134,154
0,104494,439,692,1546,-1483,-306,-43,176,134,154
0,104499,439,693,1540,-1485,-300,-38,176,134,154
0,104506,439,693,1540,-1485,-300,-38,176,134,154
0,104513,439,693,1540,-1485,-300,-38,176,134,154
0,104519,438,695,1547,-1489,-306,-41,176,134,154
0,104526,438,695,1547,-1489,-306,-41,176,134,154
0,104532,438,695,1547,-1489,-306,-41,176,134,154
0,104539,439,692,1544,-1486,-303,-50,168,138,156
0,104546,439,692,1544,-1486,-303,-50,168,138,156
0,104552,439,692,1544,-1486,-303,-50,168,138,156
0,104557,438,694,1546,-1485,-302,-55,168,138,156
0,104563,438,694,1546,-1485,-302,-55,168,138,156
0,104569,438,694,1546,-1485,-302,-55,168,138,156
0,104577,438,694,1546,-1485,-302,-55,168,138,156
0,104583,437,693,1544,-1486,-303,-48,168,138,156
0,104589,437,693,1544,-1486,-303,-48,168,138,156
0,104595,437,693,1544,-1486,-303,-48,168,138,156
0,104600,438,692,1545,-1480,-303,-42,168,138,156
0,104606,438,692,1545,-1480,-303,-42,168,138,156
0,104611,438,692,1545,-1480,-303,-42,168,138,156
0,104619,440,692,1542,-1487,-296,-36,168,138,156
0,104624,440,692,1542,-1487,-296,-36,168,138,156
0,104629,440,692,1542,-1487,-296,-36,168,138,156
0,104635,440,692,1542,-1487,-296,-36,168,138,156
0,104640,442,691,1540,-1484,-299,-48,168,138,156
0,104645,442,691,1540,-1484,-299,-48,168,138,156
0,104651,442,691,1540,-1484,-299,-48,168,138,156
0,104656,442,691,1540,-1484,-299,-48,168,138,156
0,104663,441,691,1541,-1482,-304,-44,165,139,161
0,104668,441,691,1541,-1482,-304,-44,165,139,161
0,104674,441,691,1541,-1482,-304,-44,165,139,161
0,104679,438,694,1545,-1483,-310,-43,165,139,161
0,104684,438,694,1545,-1483,-310,-43,165,139,161
0,104689,438,694,1545,-1483,-310,-43,165,139,161
0,104695,438,694,1545,-1483,-310,-43,165,139,161
0,104700,438,695,1544,-1490,-303,-39,165,139,161
0,104707,438,695,1544,-1490,-303,-39,165,139,161
0,104713,438,695,1544,-1490,-303,-39,165,139,161
0,104720,440,694,1539,-1493,-301,-47,165,139,161
0,104725,440,694,1539,-1493,-301,-47,165,139,161
0,104730,440,694,1539,-1493,-301,-47,165,139,161
0,104736,440,694,1539,-1493,-301,-47,165,139,161
0,104741,439,693,1544,-1490,-310,-43,165,139,161
0,104748,439,693,1544,-1490,-310,-43,165,139,161
0,104753,439,693,1544,-1490,-310,-43,165,139,161
0,104759,439,692,1542,-1489,-304,-49,165,139,161
0,104764,439,692,1542,-1489,-304,-49,165,139,161
0,104769,439,692,1542,-1489,-304,-49,165,139,161
0,104775,439,692,1542,-1489,-304,-49,165,139,161
0,104780,438,695,1544,-1482,-303,-46,165,139,161
0,104786,438,695,1544,-1482,-303,-46,165,139,161
0,104793,438,695,1544,-1482,-303,-46,165,139,161
0,104799,438,693,1548,-1484,-301,-40,171,133,161
0,104804,438,693,1548,-1484,-301,-40,171,133,161
0,104810,438,693,1548,-1484,-301,-40,171,133,161
0,104816,438,693,1548,-1484,-301,-40,171,133,161
0,104823,437,693,1541,-1479,-304,-47,171,133,161
0,104828,437,693,1541,-1479,-304,-47,171,133,161
0,104835,437,693,1541,-1479,-304,-47,171,133,161
0,104840,441,692,1542,-1484,-312,-47,171,133,161
0,104846,441,692,1542,-1484,-312,-47,171,133,161
0,104852,441,692,1542,-1484,-312,-47,171,133,161
0,104857,439,693,1545,-1487,-298,-38,171,133,161
0,104863,439,693,1545,-1487,-298,-38,171,133,161
0,104868,439,693,1545,-1487,-298,-38,171,133,161
0,104875,439,693,1545,-1487,-298,-38,171,133,161
0,104880,439,689,1543,-1493,-300,-39,171,133,161
0,104886,439,689,1543,-1493,-300,-39,171,133,161
0,104891,439,689,1543,-1493,-300,-39,171,133,161
0,104896,439,689,1543,-1493,-300,-39,171,133,161
0,104902,440,692,1538,-1488,-303,-46,171,133,161
0,104907,440,692,1538,-1488,-303,-46,171,133,161
0,104912,440,692,1538,-1488,-303,-46,171,133,161
0,104919,439,694,1546,-1482,-302,-47,158,138,152
0,104924,439,694,1546,-1482,-302,-47,158,138,152
0,104929,439,694,1546,-1482,-302,-47,158,138,152
0,104935,439,694,1546,-1482,-302,-47,158,138,152
0,104940,440,692,1543,-1485,-304,-48,158,138,152
0,104946,440,692,1543,-1485,-304,-48,158,138,152
0,104951,440,692,1543,-1485,-304,-48,158,138,152
0,104956,440,692,1543,-1485,-304,-48,158,138,152
0,104963,436,692,1543,-1484,-310,-46,158,138,152
0,104968,436,692,1543,-1484,-310,-46,158,138,152
0,104974,436,692,1543,-1484,-310,-46,158,138,152
0,104979,439,694,1549,-1485,-300,-47,158,138,152
0,104984,439,694,1549,-1485,-300,-47,158,138,152
0,104991,439,694,1549,-1485,-300,-47,158,138,152
0,104996,439,694,1549,-1485,-300,-47,158,138,152
0,105001,437,695,1541,-1483,-306,-42,158,138,152
0,105009,437,695,1541,-1483,-306,-42,158,138,152
0,105015,437,695,1541,-1483,-306,-42,158,138,152
0,105020,437,696,1541,-1481,-300,-40,158,138,152
0,105026,437,696,1541,-1481,-300,-40,158,138,152
0,105031,437,696,1541,-1481,-300,-40,158,138,152
0,105037,437,696,1541,-1481,-300,-40,158,138,152
0,105042,439,695,1544,-1485,-306,-41,165,139,145
0,105049,439,695,1544,-1485,-306,-41,165,139,145
0,105055,439,695,1544,-1485,-306,-41,165,139,145
0,105060,439,690,1544,-1482,-309,-43,165,139,145
0,105065,439,690,1544,-1482,-309,-43,165,139,145
0,105070,439,690,1544,-1482,-309,-43,165,139,145
0,105076,439,690,1544,-1482,-309,-43,165,139,145
0,105082,435,693,1549,-1478,-302,-43,165,139,145
0,105088,435,693,1549,-1478,-302,-43,165,139,145
0,105094,435,693,1549,-1478,-302,-43,165,139,145
0,105099,438,693,1541,-1482,-308,-50,165,139,145
0,105104,438,693,1541,-1482,-308,-50,165,139,145
0,105109,438,693,1541,-1482,-308,-50,165,139,145
0,105115,438,693,1541,-1482,-308,-50,165,139,145
0,105120,441,692,1543,-1481,-304,-42,165,139,145
0,105125,441,692,1543,-1481,-304,-42,165,139,145
0,105132,441,692,1543,-1481,-304,-42,165,139,145
0,105137,441,692,1543,-1481,-304,-42,165,139,145
0,105142,442,693,1544,-1478,-299,-42,165,139,145
0,105148,442,693,1544,-1478,-299,-42,165,139,145
0,105153,442,693,1544,-1478,-299,-42,165,139,145
0,105158,440,693,1544,-1489,-302,-40,158,136,156
0,105164,440,693,1544,-1489,-302,-40,158,136,156
0,105169,440,693,1544,-1489,-302,-40,158,136,156
0,105176,440,693,1544,-1489,-302,-40,158,136,156
0,105181,436,694,1542,-1485,-308,-36,158,136,156
0,105187,436,694,1542,-1485,-308,-36,158,136,156
0,105192,436,694,1542,-1485,-308,-36,158,136,156
0,105199,436,694,1546,-1482,-300,-40,158,136,156
0,105204,436,694,1546,-1482,-300,-40,158,136,156
0,105211,436,694,1546,-1482,-300,-40,158,136,156
0,105217,436,694,1546,-1482,-300,-40,158,136,156
0,105223,439,689,1541,-1496,-296,-40,158,136,156
0,105229,439,689,1541,-1496,-296,-40,158,136,156
0,105234,439,689,1541,-1496,-296,-40,158,136,156
0,105240,439,692,1542,-1489,-300,-44,158,136,156
0,105245,439,692,1542,-1489,-300,-44,158,136,156
0,105251,439,692,1542,-1489,-300,-44,158,136,156
0,105256,439,692,1542,-1489,-300,-44,158,136,156
0,105263,437,692,1544,-1488,-301,-53,158,136,156
0,105268,437,692,1544,-1488,-301,-53,158,136,156
0,105274,437,692,1544,-1488,-301,-53,158,136,156
0,105280,437,695,1543,-1488,-299,-45,164,134,156
0,105285,437,695,1543,-1488,-299,-45,164,134,156
0,105292,437,695,1543,-1488,-299,-45,164,134,156
0,105300,438,691,1547,-1487,-309,-41,164,134,156
0,105307,438,691,1547,-1487,-309,-41,164,134,156
0,105313,438,691,1547,-1487,-309,-41,164,134,156
0,105319,437,691,1543,-1478,-307,-48,164,134,156
0,105326,437,691,1543,-1478,-307,-48,164,134,156
0,105332,437,691,1543,-1478,-307,-48,164,134,156
0,105338,438,693,1547,-1482,-306,-47,164,134,156
0,105344,438,693,1547,-1482,-306,-47,164,134,156
0,105350,438,693,1547,-1482,-306,-47,164,134,156
0,105357,438,693,1547,-1482,-306,-47,164,134,156
0,105364,440,693,1545,-1484,-303,-46,164,134,156
0,105370,440,693,1545,-1484,-303,-46,164,134,156
0,105377,440,693,1545,-1484,-303,-46,164,134,156
0,105383,438,691,1545,-1487,-300,-50,164,134,156
0,105391,438,691,1545,-1487,-300,-50,164,134,156
0,105396,438,691,1545,-1487,-300,-50,164,134,156
0,105402,439,691,1545,-1480,-300,-42,164,134,156
0,105408,439,691,1545,-1480,-300,-42,164,134,156
0,105414,439,691,1545,-1480,-300,-42,164,134,156
0,105420,440,693,1545,-1478,-301,-38,168,134,156
0,105425,440,693,1545,-1478,-301,-38,168,134,156
0,105431,440,693,1545,-1478,-301,-38,168,134,156
0,105436,440,693,1545,-1478,-301,-38,168,134,156
0,105441,439,691,1541,-1480,-302,-44,168,134,156
0,105446,439,691,1541,-1480,-302,-44,168,134,156
0,105451,439,691,1541,-1480,-302,-44,168,134,156
0,105456,439,691,1541,-1480,-302,-44,168,134,156
0,105462,439,691,1540,-1483,-305,-47,168,134,156
0,105468,439,691,1540,-1483,-305,-47,168,134,156
0,105475,439,691,1540,-1483,-305,-47,168,134,156
0,105480,437,692,1541,-1489,-304,-40,168,134,156
0,105485,437,692,1541,-1489,-304,-40,168,134,156
0,105491,437,692,1541,-1489,-304,-40,168,134,156
0,105496,437,692,1541,-1489,-304,-40,168,134,156
0,105502,440,692,1542,-1486,-303,-47,168,134,156
0,105507,440,692,1542,-1486,-303,-47,168,134,156
0,105512,440,692,1542,-1486,-303,-47,168,134,156
0,105518,441,695,1543,-1486,-300,-53,168,134,156
0,105524,441,695,1543,-1486,-300,-53,168,134,156
0,105529,441,695,1543,-1486,-300,-53,168,134,156
0,105535,441,695,1543,-1486,-300,-53,168,134,156
0,105541,438,693,1544,-1487,-305,-47,165,135,153
0,105546,438,693,1544,-1487,-305,-47,165,135,153
0,105553,438,693,1544,-1487,-305,-47,165,135,153
0,105559,437,690,1547,-1493,-308,-44,165,135,153
0,105565,437,690,1547,-1493,-308,-44,165,135,153
0,105571,437,690,1547,-1493,-308,-44,165,135,153
0,105577,437,690,1547,-1493,-308,-44,165,135,153
0,105582,440,693,1540,-1487,-307,-43,165,135,153
0,105587,440,693,1540,-1487,-307,-43,165,135,153
0,105592,440,693,1540,-1487,-307,-43,165,135,153
0,105597,440,693,1540,-1487,-307,-43,165,135,153
0,105603,439,693,1545,-1483,-305,-49,165,135,153
0,105607,439,693,1545,-1483,-305,-49,165,135,153
0,105612,439,693,1545,-1483,-305,-49,165,135,153
0,105616,439,693,1545,-1483,-305,-49,165,135,153
0,105621,436,693,1541,-1488,-304,-47,165,135,153
0,105627,436,693,1541,-1488,-304,-47,165,135,153
0,105631,436,693,1541,-1488,-304,-47,165,135,153
0,105636,436,693,1541,-1488,-304,-47,165,135,153
0,105643,439,691,1544,-1480,-301,-46,165,135,153
0,105648,439,691,1544,-1480,-301,-46,165,135,153
0,105653,439,691,1544,-1480,-301,-46,165,135,153
0,105659,439,691,1543,-1487,-304,-48,167,131,155
0,105665,439,691,1543,-1487,-304,-48,167,131,155
0,105670,439,691,1543,-1487,-304,-48,167,131,155
0,105676,439,691,1543,-1487,-304,-48,167,131,155
0,105682,439,691,1548,-1481,-307,-50,167,131,155
0,105688,439,691,1548,-1481,-307,-50,167,131,155
0,105694,439,691,1548,-1481,-307,-50,167,131,155
0,105700,438,690,1543,-1481,-306,-49,167,131,155
0,105706,438,690,1543,-1481,-306,-49,167,131,155
0,105711,438,690,1543,-1481,-306,-49,167,131,155
0,105717,438,690,1543,-1481,-306,-49,167,131,155
0,105722,441,694,1538,-1488,-298,-45,167,131,155
0,105729,441,694,1538,-1488,-298,-45,167,131,155
0,105735,441,694,1538,-1488,-298,-45,167,131,155
0,105741,439,695,1542,-1482,-305,-49,167,131,155
0,105748,439,695,1542,-1482,-305,-49,167,131,155
0,105755,439,695,1542,-1482,-305,-49,167,131,155
0,105761,435,690,1542,-1488,-301,-46,167,131,155
0,105768,435,690,1542,-1488,-301,-46,167,131,155
0,105774,435,690,1542,-1488,-301,-46,167,131,155
0,105780,440,692,1543,-1486,-304,-50,166,140,160
0,105786,440,692,1543,-1486,-304,-50,166,140,160
0,105793,440,692,1543,-1486,-304,-50,166,140,160
0,105800,438,693,1544,-1485,-303,-48,166,140,160
0,105807,438,693,1544,-1485,-303,-48,166,140,160
0,105814,438,693,1544,-1485,-303,-48,166,140,160
0,105820,440,689,1543,-1489,-301,-43,166,140,160
0,105825,440,689,1543,-1489,-301,-43,166,140,160
0,105830,440,689,1543,-1489,-301,-43,166,140,160
0,105834,440,689,1543,-1489,-301,-43,166,140,160
0,105840,439,691,1537,-1491,-306,-45,166,140,160
0,105845,439,691,1537,-1491,-306,-45,166,140,160
0,105850,439,691,1537,-1491,-306,-45,166,140,160
0,105856,439,691,1537,-1491,-306,-45,166,140,160
0,105862,437,688,1543,-1484,-304,-43,166,140,160
0,105867,437,688,1543,-1484,-304,-43,166,140,160
0,105872,437,688,1543,-1484,-304,-43,166,140,160
0,105878,439,691,1544,-1487,-306,-42,166,140,160
0,105883,439,691,1544,-1487,-306,-42,166,140,160
0,105889,439,691,1544,-1487,-306,-42,166,140,160
0,105894,439,691,1544,-1487,-306,-42,166,140,160
0,105900,438,693,1539,-1488,-303,-47,170,134,152
0,105907,438,693,1539,-1488,-303,-47,170,134,152
0,105913,438,693,1539,-1488,-303,-47,170,134,152
0,105918,437,691,1541,-1490,-302,-41,170,134,152
0,105924,437,691,1541,-1490,-302,-41,170,134,152
0,105929,437,691,1541,-1490,-302,-41,170,134,152
0,105935,437,691,1541,-1490,-302,-41,170,134,152
0,105940,438,689,1541,-1488,-302,-45,170,134,152
0,105946,438,689,1541,-1488,-302,-45,170,134,152
0,105952,438,689,1541,-1488,-302,-45,170,134,152
0,105958,438,689,1543,-1483,-302,-52,170,134,152
0,105964,438,689,1543,-1483,-302,-52,170,134,152
0,105969,438,689,1543,-1483,-302,-52,170,134,152
0,105975,438,689,1543,-1483,-302,-52,170,134,152
0,105981,437,693,1547,-1485,-298,-45,170,134,152
0,105988,437,693,1547,-1485,-298,-45,170,134,152
0,105993,437,693,1547,-1485,-298,-45,170,134,152
0,105999,439,694,1542,-1479,-297,-46,170,134,152
0,106004,439,694,1542,-1479,-297,-46,170,134,152
0,106010,439,694,1542,-1479,-297,-46,170,134,152
0,106015,439,694,1542,-1479,-297,-46,170,134,152
0,106020,437,692,1542,-1489,-304,-48,170,134,152
0,106025,437,692,1542,-1489,-304,-48,170,134,152
0,106032,437,692,1542,-1489,-304,-48,170,134,152
0,106036,437,692,1542,-1489,-304,-48,170,134,152
0,106042,442,690,1545,-1481,-301,-46,159,135,163
0,106048,442,690,1545,-1481,-301,-46,159,135,163
0,106054,442,690,1545,-1481,-301,-46,159,135,163
0,106060,441,688,1544,-1485,-301,-38,159,135,163
0,106065,441,688,1544,-1485,-301,-38,159,135,163
0,106071,441,688,1544,-1485,-301,-38,159,135,163
0,106076,441,688,1544,-1485,-301,-38,159,135,163
0,106082,440,690,1542,-1490,-302,-34,159,135,163
0,106087,440,690,1542,-1490,-302,-34,159,135,163
0,106093,440,690,1542,-1490,-302,-34,159,135,163
0,106098,439,692,1542,-1490,-302,-43,159,135,163
0,106104,439,692,1542,-1490,-302,-43,159,135,163
0,106110,439,692,1542,-1490,-302,-43,159,135,163
0,106116,439,692,1542,-1490,-302,-43,159,135,163
0,106121,437,691,1543,-1480,-304,-39,159,135,163
0,106126,437,691,1543,-1480,-304,-39,159,135,163
0,106132,437,691,1543,-1480,-304,-39,159,135,163
0,106137,437,691,1543,-1480,-304,-39,159,135,163
0,106142,437,692,1546,-1482,-303,-36,159,135,163
0,106147,437,692,1546,-1482,-303,-36,159,135,163
0,106153,437,692,1546,-1482,-303,-36,159,135,163
0,106160,439,692,1543,-1484,-301,-46,154,128,152
0,106165,439,692,1543,-1484,-301,-46,154,128,152
0,106171,439,692,1543,-1484,-301,-46,154,128,152
0,106177,439,692,1543,-1484,-301,-46,154,128,152
0,106182,437,695,1547,-1490,-300,-46,154,128,152
0,106188,437,695,1547,-1490,-300,-46,154,128,152
0,106193,437,695,1547,-1490,-300,-46,154,128,152
0,106200,440,697,1543,-1489,-302,-52,154,128,152
0,106206,440,697,1543,-1489,-302,-52,154,128,152
0,106212,440,697,1543,-1489,-302,-52,154,128,152
0,106217,440,697,1543,-1489,-302,-52,154,128,152
0,106222,440,691,1545,-1494,-301,-45,154,128,152
0,106228,440,691,1545,-1494,-301,-45,154,128,152
0,106234,440,691,1545,-1494,-301,-45,154,128,152
0,106240,440,693,1538,-1489,-306,-46,154,128,152
0,106246,440,693,1538,-1489,-306,-46,154,128,152
0,106252,440,693,1538,-1489,-306,-46,154,128,152
0,106259,439,690,1540,-1482,-302,-46,154,128,152
0,106265,439,690,1540,-1482,-302,-46,154,128,152
0,106270,439,690,1540,-1482,-302,-46,154,128,152
0,106276,439,690,1540,-1482,-302,-46,154,128,152
0,106281,439,696,1539,-1486,-294,-43,165,123,153
0,106288,439,696,1539,-1486,-294,-43,165,123,153
0,106293,439,696,1539,-1486,-294,-43,165,123,153
0,106298,440,692,1543,-1482,-297,-45,165,123,153
0,106304,440,692,1543,-1482,-297,-45,165,123,153
0,106310,440,692,1543,-1482,-297,-45,165,123,153
0,106315,440,692,1543,-1482,-297,-45,165,123,153
0,106320,439,691,1549,-1486,-304,-37,165,123,153
0,106326,439,691,1549,-1486,-304,-37,165,123,153
0,106331,439,691,1549,-1486,-304,-37,165,123,153
0,106337,439,691,1549,-1486,-304,-37,165,123,153
0,106342,439,696,1548,-1489,-300,-44,165,123,153
0,106347,439,696,1548,-1489,-300,-44,165,123,153
0,106353,439,696,1548,-1489,-300,-44,165,123,153
0,106358,439,692,1547,-1482,-302,-44,165,123,153
0,106364,439,692,1547,-1482,-302,-44,165,123,153
0,106372,439,692,1547,-1482,-302,-44,165,123,153
0,106377,439,692,1547,-1482,-302,-44,165,123,153
0,106382,441,691,1543,-1477,-304,-47,165,123,153
0,106388,441,691,1543,-1477,-304,-47,165,123,153
0,106393,441,691,1543,-1477,-304,-47,165,123,153
0,106398,437,692,1539,-1485,-302,-37,157,145,151
0,106403,437,692,1539,-1485,-302,-37,157,145,151
0,106409,437,692,1539,-1485,-302,-37,157,145,151
0,106415,437,692,1539,-1485,-302,-37,157,145,151
0,106420,439,691,1541,-1485,-305,-39,157,145,151
0,106425,439,691,1541,-1485,-305,-39,157,145,151
0,106431,439,691,1541,-1485,-305,-39,157,145,151
0,106436,439,691,1541,-1485,-305,-39,157,145,151
0,106442,440,695,1544,-1481,-299,-42,157,145,151
0,106447,440,695,1544,-1481,-299,-42,157,145,151
0,106454,440,695,1544,-1481,-299,-42,157,145,151
0,106460,438,694,1544,-1490,-303,-45,157,145,151
0,106464,438,694,1544,-1490,-303,-45,157,145,151
0,106470,438,694,1544,-1490,-303,-45,157,145,151
0,106475,438,694,1544,-1490,-303,-45,157,145,151
0,106480,440,693,1542,-1489,-293,-41,157,145,151
0,106486,440,693,1542,-1489,-293,-41,157,145,151
0,106491,440,693,1542,-1489,-293,-41,157,145,151
0,106498,440,693,1542,-1489,-293,-41,157,145,151
0,106503,437,693,1542,-1487,-300,-41,157,145,151
0,106508,437,693,1542,-1487,-300,-41,157,145,151
0,106514,437,693,1542,-1487,-300,-41,157,145,151
0,106519,439,691,1540,-1483,-310,-42,157,145,151
0,106524,439,691,1540,-1483,-310,-42,157,145,151
0,106529,439,691,1540,-1483,-310,-42,157,145,151
0,106534,439,691,1540,-1483,-310,-42,157,145,151
0,106540,439,692,1543,-1487,-304,-47,156,136,150
0,106546,439,692,1543,-1487,-304,-47,156,136,150
0,106551,439,692,1543,-1487,-304,-47,156,136,150
0,106556,439,692,1543,-1487,-304,-47,156,136,150
0,106562,438,694,1540,-1491,-299,-37,156,136,150
0,106567,438,694,1540,-1491,-299,-37,156,136,150
0,106572,438,694,1540,-1491,-299,-37,156,136,150
0,106577,438,694,1540,-1491,-299,-37,156,136,150
0,106583,438,694,1541,-1490,-304,-46,156,136,150
0,106589,438,694,1541,-1490,-304,-46,156,136,150
0,106595,438,694,1541,-1490,-304,-46,156,136,150
0,106600,438,692,1538,-1488,-300,-44,156,136,150
0,106606,438,692,1538,-1488,-300,-44,156,136,150
0,106612,438,692,1538,-1488,-300,-44,156,136,150
0,106617,438,694,1541,-1482,-300,-42,156,136,150
0,106624,438,694,1541,-1482,-300,-42,156,136,150
0,106629,438,694,1541,-1482,-300,-42,156,136,150
0,106635,438,694,1541,-1482,-300,-42,156,136,150
0,106640,439,693,1542,-1476,-303,-42,156,136,150
0,106645,439,693,1542,-1476,-303,-42,156,136,150
0,106651,439,693,1542,-1476,-303,-42,156,136,150
0,106657,439,693,1542,-1476,-303,-42,156,136,150
0,106662,436,693,1544,-1486,-303,-43,159,135,155
0,106668,436,693,1544,-1486,-303,-43,159,135,155
0,106674,436,693,1544,-1486,-303,-43,159,135,155
0,106679,438,696,1543,-1484,-305,-43,159,135,155
0,106685,438,696,1543,-1484,-305,-43,159,135,155
0,106691,438,696,1543,-1484,-305,-43,159,135,155
0,106696,438,696,1543,-1484,-305,-43,159,135,155
0,106702,438,696,1543,-1484,-305,-43,159,135,155
0,106707,438,696,1543,-1484,-305,-43,159,135,155
0,106715,438,696,1543,-1484,-305,-43,159,135,155
0,106720,440,691,1544,-1483,-302,-42,159,135,155
0,106726,440,691,1544,-1483,-302,-42,159,135,155
0,106731,440,691,1544,-1483,-302,-42,159,135,155
0,106737,440,691,1544,-1483,-302,-42,159,135,155
0,106742,440,694,1542,-1477,-304,-41,159,135,155
0,106748,440,694,1542,-1477,-304,-41,159,135,155
0,106755,440,694,1542,-1477,-304,-41,159,135,155
0,106760,437,696,1544,-1480,-298,-45,159,135,155
0,106766,437,696,1544,-1480,-298,-45,159,135,155
0,106772,437,696,1544,-1480,-298,-45,159,135,155
0,106778,437,698,1542,-1479,-302,-45,158,138,152
0,106783,437,698,1542,-1479,-302,-45,158,138,152
0,106788,437,698,1542,-1479,-302,-45,158,138,152
0,106795,437,698,1542,-1479,-302,-45,158,138,152
0,106800,439,695,1542,-1485,-300,-46,158,138,152
0,106806,439,695,1542,-1485,-300,-46,158,138,152
0,106811,439,695,1542,-1485,-300,-46,158,138,152
0,106817,439,695,1542,-1485,-300,-46,158,138,152
0,106823,441,692,1541,-1487,-308,-37,158,138,152
0,106828,441,692,1541,-1487,-308,-37,158,138,152
0,106834,441,692,1541,-1487,-308,-37,158,138,152
0,106841,442,693,1541,-1481,-312,-48,158,138,152
0,106847,442,693,1541,-1481,-312,-48,158,138,152
0,106853,442,693,1541,-1481,-312,-48,158,138,152
0,106859,437,695,1543,-1483,-303,-48,158,138,152
0,106865,437,695,1543,-1483,-303,-48,158,138,152
0,106870,437,695,1543,-1483,-303,-48,158,138,152
0,106875,437,695,1543,-1483,-303,-48,158,138,152
0,106882,436,692,1542,-1489,-305,-46,158,138,152
0,106888,436,692,1542,-1489,-305,-46,158,138,152
0,106892,436,692,1542,-1489,-305,-46,158,138,152
0,106897,436,692,1542,-1489,-305,-46,158,138,152
0,106902,438,691,1544,-1491,-303,-46,171,145,153
0,106908,438,691,1544,-1491,-303,-46,171,145,153
0,106913,438,691,1544,-1491,-303,-46,171,145,153
0,106918,437,696,1542,-1486,-301,-54,171,145,153
0,106924,437,696,1542,-1486,-301,-54,171,145,153
0,106930,437,696,1542,-1486,-301,-54,171,145,153
0,106935,437,696,1542,-1486,-301,-54,171,145,153
0,106940,438,694,1543,-1479,-307,-42,171,145,153
0,106946,438,694,1543,-1479,-307,-42,171,145,153
0,106951,438,694,1543,-1479,-307,-42,171,145,153
0,106956,438,694,1543,-1479,-307,-42,171,145,153
0,106963,436,689,1542,-1482,-304,-44,171,145,153
0,106970,436,689,1542,-1482,-304,-44,171,145,153
0,106976,436,689,1542,-1482,-304,-44,171,145,153
0,106981,436,695,1541,-1485,-301,-41,171,145,153
0,106987,436,695,1541,-1485,-301,-41,171,145,153
0,106992,436,695,1541,-1485,-301,-41,171,145,153
0,106998,436,695,1541,-1485,-301,-41,171,145,153
0,107003,436,695,1541,-1485,-301,-41,171,145,153
0,107010,436,695,1541,-1485,-301,-41,171,145,153
0,107015,436,695,1541,-1485,-301,-41,171,145,153
0,107020,440,693,1543,-1486,-303,-47,168,132,152
0,107026,440,693,1543,-1486,-303,-47,168,132,152
0,107031,440,693,1543,-1486,-303,-47,168,132,152
0,107037,440,693,1543,-1486,-303,-47,168,132,152
0,107043,438,694,1546,-1486,-297,-41,168,132,152
0,107048,438,694,1546,-1486,-297,-41,168,132,152
0,107056,438,694,1546,-1486,-297,-41,168,132,152
0,107061,437,692,1544,-1487,-300,-40,168,132,152
0,107066,437,692,1544,-1487,-300,-40,168,132,152
0,107072,437,692,1544,-1487,-300,-40,168,132,152
0,107077,437,692,1544,-1487,-300,-40,168,132,152
0,107083,438,691,1541,-1487,-303,-40,168,132,152
0,107088,438,691,1541,-1487,-303,-40,168,132,152
0,107095,438,691,1541,-1487,-303,-40,168,132,152
0,107100,439,690,1537,-1482,-299,-50,168,132,152
0,107106,439,690,1537,-1482,-299,-50,168,132,152
0,107111,439,690,1537,-1482,-299,-50,168,132,152
0,107117,439,690,1537,-1482,-299,-50,168,132,152
0,107122,437,696,1539,-1488,-297,-44,168,132,152
0,107127,437,696,1539,-1488,-297,-44,168,132,152
0,107133,437,696,1539,-1488,-297,-44,168,132,152
0,107139,439,693,1543,-1489,-299,-45,168,132,152
0,107145,439,693,1543,-1489,-299,-45,168,132,152
0,107150,439,693,1543,-1489,-299,-45,168,132,152
0,107156,439,693,1543,-1489,-299,-45,168,132,152
0,107161,439,693,1548,-1486,-308,-34,169,135,147
0,107166,439,693,1548,-1486,-308,-34,169,135,147
0,107172,439,693,1548,-1486,-308,-34,169,135,147
0,107177,439,693,1548,-1486,-308,-34,169,135,147
0,107184,440,692,1545,-1487,-306,-42,169,135,147
0,107189,440,692,1545,-1487,-306,-42,169,135,147
0,107195,440,692,1545,-1487,-306,-42,169,135,147
0,107201,439,692,1544,-1488,-307,-40,169,135,147
0,107207,439,692,1544,-1488,-307,-40,169,135,147
0,107212,439,692,1544,-1488,-307,-40,169,135,147
0,107217,439,692,1544,-1488,-307,-40,169,135,147
0,107224,438,692,1540,-1487,-306,-46,169,135,147
0,107229,438,692,1540,-1487,-306,-46,169,135,147
0,107234,438,692,1540,-1487,-306,-46,169,135,147
0,107240,438,697,1543,-1486,-308,-46,169,135,147
0,107246,438,697,1543,-1486,-308,-46,169,135,147
0,107251,438,697,1543,-1486,-308,-46,169,135,147
0,107257,438,697,1543,-1486,-308,-46,169,135,147
0,107264,436,690,1542,-1480,-303,-53,169,135,147
0,107270,436,690,1542,-1480,-303,-53,169,135,147
0,107276,436,690,1542,-1480,-303,-53,169,135,147
0,107281,438,693,1550,-1479,-301,-46,165,135,161
0,107287,438,693,1550,-1479,-301,-46,165,135,161
0,107293,438,693,1550,-1479,-301,-46,165,135,161
0,107298,436,691,1545,-1491,-295,-43,165,135,161
0,107303,436,691,1545,-1491,-295,-43,165,135,161
0,107310,436,691,1545,-1491,-295,-43,165,135,161
0,107316,436,691,1545,-1491,-295,-43,165,135,161
0,107323,439,695,1544,-1493,-303,-41,165,135,161
0,107330,439,695,1544,-1493,-303,-41,165,135,161
0,107336,439,695,1544,-1493,-303,-41,165,135,161
0,107342,439,692,1540,-1485,-305,-41,165,135,161
0,107348,439,692,1540,-1485,-305,-41,165,135,161
0,107355,439,692,1540,-1485,-305,-41,165,135,161
0,107360,439,691,1543,-1491,-301,-39,165,135,161
0,107366,439,691,1543,-1491,-301,-39,165,135,161
0,107372,439,691,1543,-1491,-301,-39,165,135,161
0,107378,439,691,1543,-1491,-301,-39,165,135,161
0,107383,440,693,1543,-1483,-302,-38,165,135,161
0,107388,440,693,1543,-1483,-302,-38,165,135,161
0,107394,440,693,1543,-1483,-302,-38,165,135,161
0,107401,440,693,1543,-1483,-302,-38,165,133,163
0,107408,440,693,1543,-1483,-302,-38,165,133,163
0,107413,440,693,1543,-1483,-302,-38,165,133,163
0,107418,440,693,1543,-1483,-302,-38,165,133,163
0,107423,439,692,1541,-1477,-303,-43,165,133,163
0,107427,439,692,1541,-1477,-303,-43,165,133,163
0,107432,439,692,1541,-1477,-303,-43,165,133,163
0,107438,439,692,1541,-1477,-303,-43,165,133,163
0,107443,440,695,1548,-1484,-297,-43,165,133,163
0,107448,440,695,1548,-1484,-297,-43,165,133,163
0,107454,440,695,1548,-1484,-297,-43,165,133,163
0,107459,439,693,1537,-1479,-295,-48,165,133,163
0,107465,439,693,1537,-1479,-295,-48,165,133,163
0,107470,439,693,1537,-1479,-295,-48,165,133,163
0,107475,439,693,1537,-1479,-295,-48,165,133,163
0,107482,440,693,1538,-1480,-296,-47,165,133,163
0,107487,440,693,1538,-1480,-296,-47,165,133,163
0,107493,440,693,1538,-1480,-296,-47,165,133,163
0,107498,439,694,1542,-1483,-304,-53,165,133,163
0,107504,439,694,1542,-1483,-304,-53,165,133,163
0,107510,439,694,1542,-1483,-304,-53,165,133,163
0,107516,439,694,1542,-1483,-304,-53,165,133,163
0,107522,437,693,1544,-1482,-309,-50,161,133,151
0,107528,437,693,1544,-1482,-309,-50,161,133,151
0,107534,437,693,1544,-1482,-309,-50,161,133,151
0,107540,440,692,1541,-1479,-302,-43,161,133,151
0,107546,440,692,1541,-1479,-302,-43,161,133,151
0,107551,440,692,1541,-1479,-302,-43,161,133,151
0,107557,440,692,1541,-1479,-302,-43,161,133,151
0,107563,438,693,1544,-1482,-299,-39,161,133,151
0,107570,438,693,1544,-1482,-299,-39,161,133,151
0,107575,438,693,1544,-1482,-299,-39,161,133,151
0,107581,436,694,1542,-1484,-299,-43,161,133,151
0,107586,436,694,1542,-1484,-299,-43,161,133,151
0,107592,436,694,1542,-1484,-299,-43,161,133,151
0,107597,436,694,1542,-1484,-299,-43,161,133,151
0,107603,438,692,1543,-1484,-302,-43,161,133,151
0,107610,438,692,1543,-1484,-302,-43,161,133,151
0,107615,438,692,1543,-1484,-302,-43,161,133,151
0,107620,441,691,1542,-1482,-304,-38,161,133,151
0,107625,441,691,1542,-1482,-304,-38,161,133,151
0,107631,441,691,1542,-1482,-304,-38,161,133,151
0,107636,441,691,1542,-1482,-304,-38,161,133,151
0,107641,438,693,1543,-1483,-305,-50,165,145,159
0,107648,438,693,1543,-1483,-305,-50,165,145,159
0,107653,438,693,1543,-1483,-305,-50,165,145,159
0,107659,442,692,1543,-1494,-307,-53,165,145,159
0,107664,442,692,1543,-1494,-307,-53,165,145,159
0,107669,442,692,1543,-1494,-307,-53,165,145,159
0,107676,442,692,1543,-1494,-307,-53,165,145,159
0,107682,436,693,1547,-1487,-300,-43,165,145,159
0,107687,436,693,1547,-1487,-300,-43,165,145,159
0,107694,436,693,1547,-1487,-300,-43,165,145,159
0,107699,435,693,1537,-1482,-295,-44,165,145,159
0,107705,435,693,1537,-1482,-295,-44,165,145,159
0,107710,435,693,1537,-1482,-295,-44,165,145,159
0,107716,435,693,1537,-1482,-295,-44,165,145,159
0,107722,438,693,1542,-1483,-297,-46,165,145,159
0,107726,438,693,1542,-1483,-297,-46,165,145,159
0,107731,438,693,1542,-1483,-297,-46,165,145,159
0,107737,438,693,1542,-1483,-297,-46,165,145,159
0,107742,439,689,1544,-1488,-297,-48,165,145,159
0,107747,439,689,1544,-1488,-297,-48,165,145,159
0,107752,439,689,1544,-1488,-297,-48,165,145,159
0,107757,439,689,1544,-1488,-297,-48,165,145,159
0,107762,439,688,1541,-1487,-302,-47,165,145,159
0,107767,439,688,1541,-1487,-302,-47,165,145,159
0,107772,439,688,1541,-1487,-302,-47,165,145,159
0,107778,439,688,1541,-1487,-302,-47,165,145,159
0,107783,439,695,1545,-1486,-298,-46,165,133,147
0,107789,439,695,1545,-1486,-298,-46,165,133,147
0,107794,439,695,1545,-1486,-298,-46,165,133,147
0,107799,438,691,1542,-1487,-299,-41,165,133,147
0,107805,438,691,1542,-1487,-299,-41,165,133,147
0,107811,438,691,1542,-1487,-299,-41,165,133,147
0,107816,438,691,1542,-1487,-299,-41,165,133,147
0,107823,440,694,1544,-1484,-303,-47,165,133,147
0,107828,440,694,1544,-1484,-303,-47,165,133,147
0,107834,440,694,1544,-1484,-303,-47,165,133,147
0,107840,437,693,1540,-1481,-304,-56,165,133,147
0,107846,437,693,1540,-1481,-304,-56,165,133,147
0,107853,437,693,1540,-1481,-304,-56,165,133,147
0,107858,438,693,1544,-1478,-301,-52,165,133,147
0,107865,438,693,1544,-1478,-301,-52,165,133,147
0,107870,438,693,1544,-1478,-301,-52,165,133,147
0,107875,438,693,1544,-1478,-301,-52,165,133,147
0,107881,438,694,1548,-1482,-296,-47,165,133,147
0,107888,438,694,1548,-1482,-296,-47,165,133,147
0,107895,438,694,1548,-1482,-296,-47,165,133,147
0,107902,438,693,1547,-1485,-299,-41,168,132,150
0,107909,438,693,1547,-1485,-299,-41,168,132,150
0,107914,438,693,1547,-1485,-299,-41,168,132,150
0,107920,437,695,1547,-1485,-300,-39,168,132,150
0,107925,437,695,1547,-1485,-300,-39,168,132,150
0,107931,437,695,1547,-1485,-300,-39,168,132,150
0,107937,437,695,1547,-1485,-300,-39,168,132,150
0,107942,439,694,1542,-1485,-308,-51,168,132,150
0,107948,439,694,1542,-1485,-308,-51,168,132,150
0,107954,439,694,1542,-1485,-308,-51,168,132,150
0,107959,440,694,1548,-1482,-301,-44,168,132,150
0,107964,440,694,1548,-1482,-301,-44,168,132,150
0,107970,440,694,1548,-1482,-301,-44,168,132,150
0,107976,440,694,1548,-1482,-301,-44,168,132,150
0,107981,438,694,1547,-1483,-304,-47,168,132,150
0,107987,438,694,1547,-1483,-304,-47,168,132,150
0,107993,438,694,1547,-1483,-304,-47,168,132,150
0,107998,438,694,1547,-1483,-304,-47,168,132,150
0,108004,437,694,1544,-1484,-302,-43,168,132,150
0,108009,437,694,1544,-1484,-302,-43,168,132,150
0,108015,437,694,1544,-1484,-302,-43,168,132,150
0,108021,440,695,1546,-1488,-303,-43,169,145,157
0,108027,440,695,1546,-1488,-303,-43,169,145,157
0,108033,440,695,1546,-1488,-303,-43,169,145,157
0,108038,440,695,1546,-1488,-303,-43,169,145,157
0,108045,436,695,1542,-1489,-300,-52,169,145,157
0,108050,436,695,1542,-1489,-300,-52,169,145,157
0,108056,436,695,1542,-1489,-300,-52,169,145,157
0,108061,439,693,1548,-1485,-306,-45,169,145,157
0,108068,439,693,1548,-1485,-306,-45,169,145,157
0,108075,439,693,1548,-1485,-306,-45,169,145,157
0,108080,440,693,1544,-1482,-299,-44,169,145,157
0,108086,440,693,1544,-1482,-299,-44,169,145,157
0,108092,440,693,1544,-1482,-299,-44,169,145,157
0,108097,440,693,1544,-1482,-299,-44,169,145,157
0,108103,439,691,1543,-1482,-303,-47,169,145,157
0,108108,439,691,1543,-1482,-303,-47,169,145,157
0,108114,439,691,1543,-1482,-303,-47,169,145,157
0,108120,440,696,1537,-1479,-309,-45,169,145,157
0,108126,440,696,1537,-1479,-309,-45,169,145,157
0,108131,440,696,1537,-1479,-309,-45,169,145,157
0,108137,440,696,1537,-1479,-309,-45,169,145,157
0,108142,439,695,1548,-1487,-306,-46,165,135,157
0,108147,439,695,1548,-1487,-306,-46,165,135,157
0,108153,439,695,1548,-1487,-306,-46,165,135,157
0,108158,436,693,1543,-1488,-302,-43,165,135,157
0,108165,436,693,1543,-1488,-302,-43,165,135,157
0,108170,436,693,1543,-1488,-302,-43,165,135,157
0,108176,436,693,1543,-1488,-302,-43,165,135,157
0,108181,438,695,1541,-1488,-308,-42,165,135,157
0,108186,438,695,1541,-1488,-308,-42,165,135,157
0,108191,438,695,1541,-1488,-308,-42,165,135,157
0,108197,438,695,1541,-1488,-308,-42,165,135,157
0,108203,439,692,1542,-1482,-306,-43,165,135,157
0,108209,439,692,1542,-1482,-306,-43,165,135,157
0,108214,439,692,1542,-1482,-306,-43,165,135,157
0,108220,438,695,1536,-1488,-305,-42,165,135,157
0,108225,438,695,1536,-1488,-305,-42,165,135,157
0,108231,438,695,1536,-1488,-305,-42,165,135,157
0,108236,438,695,1536,-1488,-305,-42,165,135,157
0,108242,439,693,1543,-1490,-305,-48,165,135,157
0,108248,439,693,1543,-1490,-305,-48,165,135,157
0,108253,439,693,1543,-1490,-305,-48,165,135,157
0,108259,437,693,1538,-1481,-300,-48,165,135,157
0,108264,437,693,1538,-1481,-300,-48,169,137,153
0,108269,437,693,1538,-1481,-300,-48,169,137,153
0,108274,437,693,1538,-1481,-300,-48,169,137,153
0,108280,440,694,1549,-1482,-308,-46,169,137,153
0,108285,440,694,1549,-1482,-308,-46,169,137,153
0,108291,440,694,1549,-1482,-308,-46,169,137,153
0,108297,440,694,1549,-1482,-308,-46,169,137,153
0,108304,438,694,1547,-1484,-301,-52,169,137,153
0,108308,438,694,1547,-1484,-301,-52,169,137,153
0,108315,438,694,1547,-1484,-301,-52,169,137,153
0,108320,436,693,1538,-1486,-307,-52,169,137,153
0,108326,436,693,1538,-1486,-307,-52,169,137,153
0,108332,436,693,1538,-1486,-307,-52,169,137,153
0,108338,436,693,1538,-1486,-307,-52,169,137,153
0,108343,439,690,1544,-1488,-308,-49,169,137,153
0,108348,439,690,1544,-1488,-308,-49,169,137,153
0,108354,439,690,1544,-1488,-308,-49,169,137,153
0,108360,441,691,1542,-1481,-296,-50,169,137,153
0,108366,441,691,1542,-1481,-296,-50,169,137,153
0,108372,441,691,1542,-1481,-296,-50,169,137,153
0,108378,441,691,1542,-1481,-296,-50,169,137,153
0,108384,438,693,1540,-1482,-299,-46,169,137,153
0,108390,438,693,1540,-1482,-299,-46,169,137,153
0,108396,438,693,1540,-1482,-299,-46,169,137,153
0,108401,438,693,1544,-1478,-295,-50,166,138,156
0,108406,438,693,1544,-1478,-295,-50,166,138,156
0,108412,438,693,1544,-1478,-295,-50,166,138,156
0,108419,438,693,1544,-1478,-295,-50,166,138,156
0,108424,435,693,1543,-1478,-300,-46,166,138,156
0,108430,435,693,1543,-1478,-300,-46,166,138,156
0,108436,435,693,1543,-1478,-300,-46,166,138,156
0,108442,437,692,1543,-1486,-302,-49,166,138,156
0,108447,437,692,1543,-1486,-302,-49,166,138,156
0,108452,437,692,1543,-1486,-302,-49,166,138,156
0,108459,437,692,1543,-1486,-302,-49,166,138,156
0,108464,441,695,1542,-1488,-302,-45,166,138,156
0,108470,441,695,1542,-1488,-302,-45,166,138,156
0,108476,441,695,1542,-1488,-302,-45,166,138,156
0,108482,438,694,1539,-1485,-307,-44,166,138,156
0,108488,438,694,1539,-1485,-307,-44,166,138,156
0,108494,438,694,1539,-1485,-307,-44,166,138,156
0,108499,439,692,1543,-1487,-308,-43,166,138,156
0,108506,439,692,1543,-1487,-308,-43,166,138,156
0,108510,439,692,1543,-1487,-308,-43,166,138,156
0,108515,439,692,1543,-1487,-308,-43,166,138,156
0,108520,439,693,1541,-1488,-299,-43,154,144,162
0,108525,439,693,1541,-1488,-299,-43,154,144,162
0,108530,439,693,1541,-1488,-299,-43,154,144,162
0,108535,439,693,1541,-1488,-299,-43,154,144,162
0,108540,442,695,1540,-1484,-307,-52,154,144,162
0,108546,442,695,1540,-1484,-307,-52,154,144,162
0,108551,442,695,1540,-1484,-307,-52,154,144,162
0,108556,442,695,1540,-1484,-307,-52,154,144,162
0,108561,438,692,1540,-1483,-304,-46,154,144,162
0,108565,438,692,1540,-1483,-304,-46,154,144,162
0,108570,438,692,1540,-1483,-304,-46,154,144,162
0,108575,438,692,1540,-1483,-304,-46,154,144,162
0,108580,440,692,1544,-1485,-308,-44,154,144,162
0,108585,440,692,1544,-1485,-308,-44,154,144,162
0,108592,440,692,1544,-1485,-308,-44,154,144,162
0,108600,438,695,1544,-1481,-302,-43,154,144,162
0,108605,438,695,1544,-1481,-302,-43,154,144,162
0,108611,438,695,1544,-1481,-302,-43,154,144,162
0,108616,438,695,1544,-1481,-302,-43,154,144,162
0,108621,439,690,1543,-1485,-301,-45,154,144,162
0,108627,439,690,1543,-1485,-301,-45,154,144,162
0,108633,439,690,1543,-1485,-301,-45,154,144,162
0,108639,439,690,1543,-1485,-301,-45,154,144,162
0,108645,440,693,1543,-1484,-304,-40,170,136,168
0,108650,440,693,1543,-1484,-304,-40,170,136,168
0,108656,440,693,1543,-1484,-304,-40,170,136,168
0,108661,440,692,1541,-1493,-301,-44,170,136,168
0,108667,440,692,1541,-1493,-301,-44,170,136,168
0,108673,440,692,1541,-1493,-301,-44,170,136,168
0,108679,438,690,1542,-1487,-303,-45,170,136,168
0,108685,438,690,1542,-1487,-303,-45,170,136,168
0,108691,438,690,1542,-1487,-303,-45,170,136,168
0,108696,438,690,1542,-1487,-303,-45,170,136,168
0,108702,436,692,1540,-1477,-298,-43,170,136,168
0,108707,436,692,1540,-1477,-298,-43,170,136,168
0,108712,436,692,1540,-1477,-298,-43,170,136,168
0,108719,436,692,1540,-1477,-298,-43,170,136,168
0,108723,440,695,1541,-1481,-298,-38,170,136,168
0,108730,440,695,1541,-1481,-298,-38,170,136,168
0,108735,440,695,1541,-1481,-298,-38,170,136,168
0,108740,438,693,1542,-1487,-301,-40,170,136,168
0,108745,438,693,1542,-1487,-301,-40,170,136,168
0,108751,438,693,1542,-1487,-301,-40,170,136,168
0,108756,438,693,1542,-1487,-301,-40,170,136,168
0,108762,442,694,1541,-1477,-302,-40,167,133,157
0,108767,442,694,1541,-1477,-302,-40,167,133,157
0,108773,442,694,1541,-1477,-302,-40,167,133,157
0,108778,442,694,1541,-1477,-302,-40,167,133,157
0,108784,439,692,1545,-1479,-302,-46,167,133,157
0,108790,439,692,1545,-1479,-302,-46,167,133,157
0,108795,439,692,1545,-1479,-302,-46,167,133,157
0,108802,436,693,1546,-1486,-296,-41,167,133,157
0,108808,436,693,1546,-1486,-296,-41,167,133,157
0,108813,436,693,1546,-1486,-296,-41,167,133,157
0,108818,436,693,1546,-1486,-296,-41,167,133,157
0,108824,440,693,1541,-1490,-296,-46,167,133,157
0,108831,440,693,1541,-1490,-296,-46,167,133,157
0,108836,440,693,1541,-1490,-296,-46,167,133,157
0,108843,438,695,1540,-1482,-298,-52,167,133,157
0,108848,438,695,1540,-1482,-298,-52,167,133,157
0,108854,438,695,1540,-1482,-298,-52,167,133,157
0,108859,438,695,1540,-1482,-298,-52,167,133,157
0,108864,441,690,1543,-1482,-304,-50,167,133,157
0,108870,441,690,1543,-1482,-304,-50,167,133,157
0,108875,441,690,1543,-1482,-304,-50,167,133,157
0,108881,441,692,1543,-1482,-306,-48,167,133,157
0,108887,441,692,1543,-1482,-306,-48,167,133,157
0,108893,441,692,1543,-1482,-306,-48,167,133,157
0,108898,441,692,1543,-1482,-306,-48,167,133,157
0,108904,441,693,1544,-1484,-303,-51,162,140,154
0,108910,441,693,1544,-1484,-303,-51,162,140,154
0,108916,441,693,1544,-1484,-303,-51,162,140,154
0,108922,437,691,1547,-1483,-309,-53,162,140,154
0,108929,437,691,1547,-1483,-309,-53,162,140,154
0,108934,437,691,1547,-1483,-309,-53,162,140,154
0,108940,442,694,1541,-1482,-300,-45,162,140,154
0,108945,442,694,1541,-1482,-300,-45,162,140,154
0,108950,442,694,1541,-1482,-300,-45,162,140,154
0,108956,442,694,1541,-1482,-300,-45,162,140,154
0,108962,442,693,1540,-1487,-311,-48,162,140,154
0,108968,442,693,1540,-1487,-311,-48,162,140,154
0,108974,442,693,1540,-1487,-311,-48,162,140,154
0,108981,440,694,1546,-1484,-298,-44,162,140,154
0,108986,440,694,1546,-1484,-298,-44,162,140,154
0,108991,440,694,1546,-1484,-298,-44,162,140,154
0,108997,440,694,1546,-1484,-298,-44,162,140,154
0,109003,437,694,1546,-1485,-298,-45,162,140,154
0,109008,437,694,1546,-1485,-298,-45,162,140,154
0,109014,437,694,1546,-1485,-298,-45,162,140,154
0,109021,440,691,1544,-1485,-301,-44,166,134,154
0,109027,440,691,1544,-1485,-301,-44,166,134,154
0,109033,440,691,1544,-1485,-301,-44,166,134,154
0,109039,438,696,1538,-1487,-308,-40,166,134,154
0,109046,438,696,1538,-1487,-308,-40,166,134,154
0,109052,438,696,1538,-1487,-308,-40,166,134,154
0,109059,438,696,1538,-1487,-308,-40,166,134,154
0,109064,439,693,1540,-1482,-305,-47,166,134,154
0,109071,439,693,1540,-1482,-305,-47,166,134,154
0,109078,439,693,1540,-1482,-305,-47,166,134,154
0,109084,441,692,1539,-1485,-301,-41,166,134,154
0,109091,441,692,1539,-1485,-301,-41,166,134,154
0,109096,441,692,1539,-1485,-301,-41,166,134,154
0,109103,443,692,1544,-1484,-299,-45,166,134,154
0,109108,443,692,1544,-1484,-299,-45,166,134,154
0,109114,443,692,1544,-1484,-299,-45,166,134,154
0,109120,439,694,1545,-1483,-300,-37,166,134,154
0,109126,439,694,1545,-1483,-300,-37,166,134,154
0,109132,439,694,1545,-1483,-300,-37,166,134,154
0,109138,439,694,1545,-1483,-300,-37,166,134,154
0,109145,437,694,1541,-1483,-309,-47,167,131,155
0,109151,437,694,1541,-1483,-309,-47,167,131,155
0,109156,437,694,1541,-1483,-309,-47,167,131,155
0,109162,438,692,1545,-1479,-301,-44,167,131,155
0,109167,438,692,1545,-1479,-301,-44,167,131,155
0,109173,438,692,1545,-1479,-301,-44,167,131,155
0,109178,438,692,1545,-1479,-301,-44,167,131,155
0,109184,438,694,1540,-1489,-304,-52,167,131,155
0,109190,438,694,1540,-1489,-304,-52,167,131,155
0,109195,438,694,1540,-1489,-304,-52,167,131,155
0,109201,439,694,1542,-1490,-303,-47,167,131,155
0,109206,439,694,1542,-1490,-303,-47,167,131,155
0,109212,439,694,1542,-1490,-303,-47,167,131,155
0,109218,439,694,1542,-1490,-303,-47,167,131,155
0,109223,437,694,1540,-1486,-306,-37,167,131,155
0,109230,437,694,1540,-1486,-306,-37,167,131,155
0,109235,437,694,1540,-1486,-306,-37,167,131,155
0,109241,438,694,1542,-1489,-304,-48,167,131,155
0,109246,438,694,1542,-1489,-304,-48,167,131,155
0,109253,438,694,1542,-1489,-304,-48,167,131,155
0,109259,437,693,1541,-1484,-304,-41,167,131,155
0,109264,437,693,1541,-1484,-304,-41,167,145,149
0,109272,437,693,1541,-1484,-304,-41,167,145,149
0,109278,437,693,1541,-1484,-304,-41,167,145,149
0,109284,437,694,1541,-1489,-303,-41,167,145,149
0,109289,437,694,1541,-1489,-303,-41,167,145,149
0,109295,437,694,1541,-1489,-303,-41,167,145,149
0,109301,435,697,1544,-1488,-299,-53,167,145,149
0,109306,435,697,1544,-1488,-299,-53,167,145,149
0,109313,435,697,1544,-1488,-299,-53,167,145,149
0,109318,435,697,1544,-1488,-299,-53,167,145,149
0,109324,439,691,1545,-1489,-304,-49,167,145,149
0,109331,439,691,1545,-1489,-304,-49,167,145,149
0,109336,439,691,1545,-1489,-304,-49,167,145,149
0,109342,436,691,1542,-1495,-303,-48,167,145,149
0,109347,436,691,1542,-1495,-303,-48,167,145,149
0,109352,436,691,1542,-1495,-303,-48,167,145,149
0,109359,436,691,1542,-1495,-303,-48,167,145,149
0,109364,439,694,1544,-1491,-301,-49,167,145,149
0,109369,439,694,1544,-1491,-301,-49,167,145,149
0,109375,439,694,1544,-1491,-301,-49,167,145,149
0,109380,439,694,1540,-1482,-298,-50,171,131,151
0,109386,439,694,1540,-1482,-298,-50,171,131,151
0,109392,439,694,1540,-1482,-298,-50,171,131,151
0,109398,439,694,1540,-1482,-298,-50,171,131,151
0,109404,440,695,1546,-1477,-298,-45,171,131,151
0,109409,440,695,1546,-1477,-298,-45,171,131,151
0,109415,440,695,1546,-1477,-298,-45,171,131,151
0,109420,438,691,1542,-1477,-298,-45,171,131,151
0,109426,438,691,1542,-1477,-298,-45,171,131,151
0,109431,438,691,1542,-1477,-298,-45,171,131,151
0,109437,438,691,1542,-1477,-298,-45,171,131,151
0,109444,439,687,1546,-1484,-299,-47,171,131,151
0,109449,439,687,1546,-1484,-299,-47,171,131,151
0,109454,439,687,1546,-1484,-299,-47,171,131,151
0,109460,437,693,1541,-1485,-300,-42,171,131,151
0,109466,437,693,1541,-1485,-300,-42,171,131,151
0,109472,437,693,1541,-1485,-300,-42,171,131,151
0,109478,437,693,1541,-1485,-300,-42,171,131,151
0,109485,438,695,1538,-1487,-306,-39,171,131,151
0,109491,438,695,1538,-1487,-306,-39,171,131,151
0,109496,438,695,1538,-1487,-306,-39,171,131,151
0,109501,440,690,1540,-1481,-305,-45,171,131,151
0,109507,440,690,1540,-1481,-305,-45,171,131,151
0,109512,440,690,1540,-1481,-305,-45,171,131,151
0,109517,440,690,1540,-1481,-305,-45,171,131,151
0,109521,439,694,1544,-1485,-307,-41,166,132,158
0,109527,439,694,1544,-1485,-307,-41,166,132,158
0,109532,439,694,1544,-1485,-307,-41,166,132,158
0,109537,439,694,1544,-1485,-307,-41,166,132,158
0,109542,439,695,1539,-1485,-306,-44,166,132,158
0,109547,439,695,1539,-1485,-306,-44,166,132,158
0,109553,439,695,1539,-1485,-306,-44,166,132,158
0,109558,439,695,1539,-1485,-306,-44,166,132,158
0,109563,439,690,1542,-1487,-305,-45,166,132,158
0,109571,439,690,1542,-1487,-305,-45,166,132,158
0,109576,439,690,1542,-1487,-305,-45,166,132,158
0,109581,440,692,1543,-1486,-300,-48,166,132,158
0,109587,440,692,1543,-1486,-300,-48,166,132,158
0,109593,440,692,1543,-1486,-300,-48,166,132,158
0,109599,439,694,1544,-1487,-304,-48,166,132,158
0,109605,439,694,1544,-1487,-304,-48,166,132,158
0,109611,439,694,1544,-1487,-304,-48,166,132,158
0,109617,439,694,1544,-1487,-304,-48,166,132,158
0,109622,441,693,1543,-1480,-300,-47,166,132,158
0,109627,441,693,1543,-1480,-300,-47,166,132,158
0,109632,441,693,1543,-1480,-300,-47,166,132,158
0,109637,441,693,1543,-1480,-300,-47,166,132,158
0,109643,438,692,1549,-1488,-302,-47,163,137,153
0,109648,438,692,1549,-1488,-302,-47,163,137,153
0,109654,438,692,1549,-1488,-302,-47,163,137,153
0,109660,441,694,1545,-1485,-308,-46,163,137,153
0,109665,441,694,1545,-1485,-308,-46,163,137,153
0,109670,441,694,1545,-1485,-308,-46,163,137,153
0,109676,441,694,1545,-1485,-308,-46,163,137,153
0,109682,442,692,1546,-1484,-302,-44,163,137,153
0,109688,442,692,1546,-1484,-302,-44,163,137,153
0,109693,442,692,1546,-1484,-302,-44,163,137,153
0,109699,442,692,1546,-1484,-302,-44,163,137,153
0,109705,441,693,1546,-1487,-299,-36,163,137,153
0,109711,441,693,1546,-1487,-299,-36,163,137,153
0,109717,441,693,1546,-1487,-299,-36,163,137,153
0,109722,441,694,1544,-1488,-297,-45,163,137,153
0,109727,441,694,1544,-1488,-297,-45,163,137,153
0,109732,441,694,1544,-1488,-297,-45,163,137,153
0,109739,441,694,1544,-1488,-297,-45,163,137,153
0,109744,437,691,1542,-1485,-305,-47,163,137,153
0,109750,437,691,1542,-1485,-305,-47,163,137,153
0,109755,437,691,1542,-1485,-305,-47,163,137,153
0,109761,439,692,1544,-1486,-304,-39,161,135,151
0,109766,439,692,1544,-1486,-304,-39,161,135,151
0,109771,439,692,1544,-1486,-304,-39,161,135,151
0,109778,439,692,1544,-1486,-304,-39,161,135,151
0,109784,438,693,1545,-1482,-305,-42,161,135,151
0,109790,438,693,1545,-1482,-305,-42,161,135,151
0,109796,438,693,1545,-1482,-305,-42,161,135,151
0,109802,436,692,1544,-1489,-307,-37,161,135,151
0,109808,436,692,1544,-1489,-307,-37,161,135,151
0,109813,436,692,1544,-1489,-307,-37,161,135,151
0,109819,437,691,1541,-1485,-303,-44,161,135,151
0,109825,437,691,1541,-1485,-303,-44,161,135,151
0,109830,437,691,1541,-1485,-303,-44,161,135,151
0,109836,437,691,1541,-1485,-303,-44,161,135,151
0,109841,440,691,1547,-1483,-298,-44,161,135,151
0,109847,440,691,1547,-1483,-298,-44,161,135,151
0,109853,440,691,1547,-1483,-298,-44,161,135,151
0,109858,440,691,1547,-1483,-298,-44,161,135,151
0,109863,440,693,1546,-1486,-297,-53,161,135,151
0,109870,440,693,1546,-1486,-297,-53,161,135,151
0,109875,440,693,1546,-1486,-297,-53,161,135,151
0,109880,441,691,1541,-1493,-302,-48,164,142,152
0,109886,441,691,1541,-1493,-302,-48,164,142,152
0,109891,441,691,1541,-1493,-302,-48,164,142,152
0,109896,441,691,1541,-1493,-302,-48,164,142,152
0,109901,442,691,1543,-1483,-301,-47,164,142,152
0,109907,442,691,1543,-1483,-301,-47,164,142,152
0,109913,442,691,1543,-1483,-301,-47,164,142,152
0,109919,442,691,1543,-1483,-301,-47,164,142,152
0,109924,436,692,1543,-1482,-302,-46,164,142,152
0,109929,436,692,1543,-1482,-302,-46,164,142,152
0,109934,436,692,1543,-1482,-302,-46,164,142,152
0,109940,438,693,1544,-1481,-301,-50,164,142,152
0,109945,438,693,1544,-1481,-301,-50,164,142,152
0,109952,438,693,1544,-1481,-301,-50,164,142,152
0,109957,438,693,1544,-1481,-301,-50,164,142,152
0,109963,441,693,1540,-1480,-301,-48,164,142,152
0,109968,441,693,1540,-1480,-301,-48,164,142,152
0,109973,441,693,1540,-1480,-301,-48,164,142,152
0,109978,441,693,1540,-1480,-301,-48,164,142,152
0,109984,441,692,1542,-1484,-300,-37,164,142,152
0,109989,441,692,1542,-1484,-300,-37,164,142,152
0,109996,441,692,1542,-1484,-300,-37,164,142,152
0,110001,440,694,1544,-1485,-302,-44,168,132,158
0,110006,440,694,1544,-1485,-302,-44,168,132,158
0,110011,440,694,1544,-1485,-302,-44,168,132,158
0,110017,440,694,1544,-1485,-302,-44,168,132,158
0,110022,439,692,1543,-1489,-301,-43,168,132,158
0,110028,439,692,1543,-1489,-301,-43,168,132,158
0,110033,439,692,1543,-1489,-301,-43,168,132,158
0,110039,439,692,1543,-1489,-301,-43,168,132,158
0,110044,440,691,1548,-1480,-304,-48,168,132,158
0,110050,440,691,1548,-1480,-304,-48,168,132,158
0,110055,440,691,1548,-1480,-304,-48,168,132,158
0,110060,437,694,1540,-1481,-307,-43,168,132,158
0,110065,437,694,1540,-1481,-307,-43,168,132,158
0,110071,437,694,1540,-1481,-307,-43,168,132,158
0,110076,437,694,1540,-1481,-307,-43,168,132,158
0,110082,436,691,1541,-1485,-299,-48,168,132,158
0,110087,436,691,1541,-1485,-299,-48,168,132,158
0,110093,436,691,1541,-1485,-299,-48,168,132,158
0,110099,436,691,1541,-1485,-299,-48,168,132,158
0,110104,441,690,1539,-1488,-300,-42,168,132,158
0,110110,441,690,1539,-1488,-300,-42,168,132,158
0,110116,441,690,1539,-1488,-300,-42,168,132,158
0,110121,437,692,1540,-1483,-298,-45,168,132,158
0,110128,437,692,1540,-1483,-298,-45,168,132,158
0,110133,437,692,1540,-1483,-298,-45,168,132,158
0,110139,440,693,1542,-1483,-304,-52,168,132,158
0,110145,440,693,1542,-1483,-304,-52,171,129,149
0,110150,440,693,1542,-1483,-304,-52,171,129,149
0,110156,440,693,1542,-1483,-304,-52,171,129,149
0,110162,437,694,1548,-1488,-307,-49,171,129,149
0,110168,437,694,1548,-1488,-307,-49,171,129,149
0,110174,437,694,1548,-1488,-307,-49,171,129,149
0,110178,437,694,1548,-1488,-307,-49,171,129,149
0,110183,440,691,1544,-1486,-302,-47,171,129,149
0,110188,440,691,1544,-1486,-302,-47,171,129,149
0,110193,440,691,1544,-1486,-302,-47,171,129,149
0,110198,440,691,1544,-1486,-302,-47,171,129,149
0,110204,443,694,1548,-1484,-303,-48,171,129,149
0,110209,443,694,1548,-1484,-303,-48,171,129,149
0,110214,443,694,1548,-1484,-303,-48,171,129,149
0,110219,443,694,1548,-1484,-303,-48,171,129,149
0,110224,440,691,1547,-1489,-302,-51,171,129,149
0,110229,440,691,1547,-1489,-302,-51,171,129,149
0,110234,440,691,1547,-1489,-302,-51,171,129,149
0,110240,438,695,1546,-1486,-304,-45,171,129,149
0,110245,438,695,1546,-1486,-304,-45,171,129,149
0,110253,438,695,1546,-1486,-304,-45,171,129,149
0,110259,438,695,1546,-1486,-304,-45,171,129,149
0,110266,440,693,1548,-1486,-309,-47,166,134,160
0,110271,440,693,1548,-1486,-309,-47,166,134,160
0,110276,440,693,1548,-1486,-309,-47,166,134,160
0,110282,441,696,1544,-1486,-298,-54,166,134,160
0,110287,441,696,1544,-1486,-298,-54,166,134,160
0,110292,441,696,1544,-1486,-298,-54,166,134,160
0,110299,441,696,1544,-1486,-298,-54,166,134,160
0,110304,439,692,1545,-1487,-301,-43,166,134,160
0,110310,439,692,1545,-1487,-301,-43,166,134,160
0,110315,439,692,1545,-1487,-301,-43,166,134,160
0,110321,438,691,1539,-1484,-302,-51,166,134,160
0,110326,438,691,1539,-1484,-302,-51,166,134,160
0,110332,438,691,1539,-1484,-302,-51,166,134,160
0,110339,438,691,1539,-1484,-302,-51,166,134,160
0,110345,439,690,1547,-1484,-300,-45,166,134,160
0,110350,439,690,1547,-1484,-300,-45,166,134,160
0,110356,439,690,1547,-1484,-300,-45,166,134,160
0,110361,437,693,1542,-1480,-303,-43,166,134,160
0,110366,437,693,1542,-1480,-303,-43,166,134,160
0,110371,437,693,1542,-1480,-303,-43,166,134,160
0,110376,437,693,1542,-1480,-303,-43,166,134,160
0,110381,441,693,1550,-1487,-296,-51,161,125,147
0,110386,441,693,1550,-1487,-296,-51,161,125,147
0,110391,441,693,1550,-1487,-296,-51,161,125,147
0,110396,441,693,1550,-1487,-296,-51,161,125,147
0,110400,438,691,1544,-1487,-303,-49,161,125,147
0,110405,438,691,1544,-1487,-303,-49,161,125,147
0,110410,438,691,1544,-1487,-303,-49,161,125,147
0,110415,438,691,1544,-1487,-303,-49,161,125,147
0,110420,437,692,1538,-1482,-300,-46,161,125,147
0,110426,437,692,1538,-1482,-300,-46,161,125,147
0,110431,437,692,1538,-1482,-300,-46,161,125,147
0,110436,437,692,1538,-1482,-300,-46,161,125,147
0,110440,437,693,1543,-1487,-307,-43,161,125,147
0,110445,437,693,1543,-1487,-307,-43,161,125,147
0,110450,437,693,1543,-1487,-307,-43,161,125,147
0,110454,437,693,1543,-1487,-307,-43,161,125,147
0,110460,437,695,1540,-1484,-301,-45,161,125,147
0,110466,437,695,1540,-1484,-301,-45,161,125,147
0,110470,437,695,1540,-1484,-301,-45,161,125,147
0,110475,437,695,1540,-1484,-301,-45,161,125,147
0,110479,437,695,1540,-1484,-301,-45,161,125,147
0,110484,438,693,1541,-1483,-301,-43,161,125,147
0,110489,438,693,1541,-1483,-301,-43,161,125,147
0,110494,438,693,1541,-1483,-301,-43,161,125,147
0,110498,438,693,1541,-1483,-301,-43,161,125,147
0,110503,438,691,1543,-1488,-299,-45,162,128,152
0,110508,438,691,1543,-1488,-299,-45,162,128,152
0,110513,438,691,1543,-1488,-299,-45,162,128,152
0,110518,438,691,1543,-1488,-299,-45,162,128,152
0,110523,439,690,1551,-1487,-303,-48,162,128,152
0,110527,439,690,1551,-1487,-303,-48,162,128,152
0,110532,439,690,1551,-1487,-303,-48,162,128,152
0,110537,439,690,1551,-1487,-303,-48,162,128,152
0,110542,436,694,1545,-1489,-303,-42,162,128,152
0,110546,436,694,1545,-1489,-303,-42,162,128,152
0,110552,436,694,1545,-1489,-303,-42,162,128,152
0,110558,436,694,1545,-1489,-303,-42,162,128,152
0,110564,439,690,1541,-1484,-302,-42,162,128,152
0,110569,439,690,1541,-1484,-302,-42,162,128,152
0,110573,439,690,1541,-1484,-302,-42,162,128,152
0,110578,439,690,1541,-1484,-302,-42,162,128,152
0,110583,437,692,1540,-1481,-303,-50,162,128,152
0,110588,437,692,1540,-1481,-303,-50,162,128,152
0,110594,437,692,1540,-1481,-303,-50,162,128,152
0,110599,437,692,1540,-1481,-303,-50,162,128,152
0,110604,437,694,1544,-1480,-299,-39,162,128,152
0,110610,437,694,1544,-1480,-299,-39,162,128,152
0,110616,437,694,1544,-1480,-299,-39,162,128,152
0,110621,438,692,1540,-1480,-298,-48,167,131,153
0,110627,438,692,1540,-1480,-298,-48,167,131,153
0,110633,438,692,1540,-1480,-298,-48,167,131,153
0,110639,438,692,1540,-1480,-298,-48,167,131,153
0,110646,440,692,1542,-1487,-297,-41,167,131,153
0,110651,440,692,1542,-1487,-297,-41,167,131,153
0,110656,440,692,1542,-1487,-297,-41,167,131,153
0,110662,439,693,1547,-1487,-296,-39,167,131,153
0,110667,439,693,1547,-1487,-296,-39,167,131,153
0,110673,439,693,1547,-1487,-296,-39,167,131,153
0,110679,439,693,1547,-1487,-296,-39,167,131,153
0,110684,439,691,1546,-1487,-297,-41,167,131,153
0,110690,439,691,1546,-1487,-297,-41,167,131,153
0,110695,439,691,1546,-1487,-297,-41,167,131,153
0,110701,438,690,1539,-1493,-301,-36,167,131,153
0,110707,438,690,1539,-1493,-301,-36,167,131,153
0,110713,438,690,1539,-1493,-301,-36,167,131,153
0,110718,438,690,1539,-1493,-301,-36,167,131,153
0,110725,441,692,1542,-1490,-296,-48,167,131,153
0,110731,441,692,1542,-1490,-296,-48,167,131,153
0,110737,441,692,1542,-1490,-296,-48,167,131,153
0,110742,437,691,1544,-1482,-303,-47,167,131,153
0,110747,437,691,1544,-1482,-303,-47,167,131,153
0,110752,437,691,1544,-1482,-303,-47,167,131,153
0,110757,437,691,1544,-1482,-303,-47,167,131,153
0,110763,437,690,1547,-1484,-300,-41,172,134,150
0,110767,437,690,1547,-1484,-300,-41,172,134,150
0,110772,437,690,1547,-1484,-300,-41,172,134,150
0,110777,437,690,1547,-1484,-300,-41,172,134,150
0,110782,438,691,1543,-1485,-299,-48,172,134,150
0,110787,438,691,1543,-1485,-299,-48,172,134,150
0,110792,438,691,1543,-1485,-299,-48,172,134,150
0,110797,438,691,1543,-1485,-299,-48,172,134,150
0,110802,439,694,1544,-1488,-301,-45,172,134,150
0,110809,439,694,1544,-1488,-301,-45,172,134,150
0,110814,439,694,1544,-1488,-301,-45,172,134,150
0,110820,438,692,1542,-1485,-304,-44,172,134,150
0,110825,438,692,1542,-1485,-304,-44,172,134,150
0,110830,438,692,1542,-1485,-304,-44,172,134,150
0,110834,438,692,1542,-1485,-304,-44,172,134,150
0,110840,438,691,1543,-1485,-304,-43,172,134,150
0,110845,438,691,1543,-1485,-304,-43,172,134,150
0,110852,438,691,1543,-1485,-304,-43,172,134,150
0,110858,438,691,1543,-1485,-304,-43,172,134,150
0,110863,437,691,1539,-1484,-299,-47,172,134,150
0,110868,437,691,1539,-1484,-299,-47,172,134,150
0,110873,437,691,1539,-1484,-299,-47,172,134,150
0,110878,437,691,1539,-1484,-299,-47,172,134,150
0,110884,437,689,1543,-1480,-295,-49,167,131,155
0,110889,437,689,1543,-1480,-295,-49,167,131,155
0,110895,437,689,1543,-1480,-295,-49,167,131,155
0,110900,436,693,1543,-1484,-301,-53,167,131,155
0,110906,436,693,1543,-1484,-301,-53,167,131,155
0,110911,436,693,1543,-1484,-301,-53,167,131,155
0,110917,436,693,1543,-1484,-301,-53,167,131,155
0,110922,439,691,1543,-1481,-299,-52,167,131,155
0,110928,439,691,1543,-1481,-299,-52,167,131,155
0,110935,439,691,1543,-1481,-299,-52,167,131,155
0,110940,442,692,1545,-1482,-299,-52,167,131,155
0,110946,442,692,1545,-1482,-299,-52,167,131,155
0,110951,442,692,1545,-1482,-299,-52,167,131,155
0,110957,442,692,1545,-1482,-299,-52,167,131,155
0,110962,438,692,1543,-1483,-297,-45,167,131,155
0,110969,438,692,1543,-1483,-297,-45,167,131,155
0,110974,438,692,1543,-1483,-297,-45,167,131,155
0,110981,439,694,1542,-1476,-300,-40,167,131,155
0,110986,439,694,1542,-1476,-300,-40,167,131,155
0,110991,439,694,1542,-1476,-300,-40,167,131,155
0,110997,439,694,1542,-1476,-300,-40,167,131,155
0,111001,437,692,1545,-1490,-299,-43,163,137,149
0,111006,437,692,1545,-1490,-299,-43,163,137,149
0,111011,437,692,1545,-1490,-299,-43,163,137,149
0,111016,437,692,1545,-1490,-299,-43,163,137,149
0,111021,441,691,1544,-1489,-298,-41,163,137,149
0,111027,441,691,1544,-1489,-298,-41,163,137,149
0,111032,441,691,1544,-1489,-298,-41,163,137,149
0,111036,441,691,1544,-1489,-298,-41,163,137,149
0,111041,440,693,1547,-1479,-301,-40,163,137,149
0,111047,440,693,1547,-1479,-301,-40,163,137,149
0,111052,440,693,1547,-1479,-301,-40,163,137,149
0,111058,440,693,1547,-1479,-301,-40,163,137,149
0,111064,440,693,1546,-1484,-305,-47,163,137,149
0,111069,440,693,1546,-1484,-305,-47,163,137,149
0,111075,440,693,1546,-1484,-305,-47,163,137,149
0,111081,437,694,1540,-1484,-303,-41,163,137,149
0,111086,437,694,1540,-1484,-303,-41,163,137,149
0,111091,437,694,1540,-1484,-303,-41,163,137,149
0,111096,437,694,1540,-1484,-303,-41,163,137,149
0,111102,438,692,1543,-1482,-297,-40,163,137,149
0,111108,438,692,1543,-1482,-297,-40,163,137,149
0,111113,438,692,1543,-1482,-297,-40,163,137,149
0,111119,438,692,1543,-1482,-297,-40,163,137,149
0,111124,439,693,1545,-1481,-307,-41,165,141,157
0,111130,439,693,1545,-1481,-307,-41,165,141,157
0,111136,439,693,1545,-1481,-307,-41,165,141,157
0,111142,438,692,1542,-1485,-307,-46,165,141,157
0,111148,438,692,1542,-1485,-307,-46,165,141,157
0,111153,438,692,1542,-1485,-307,-46,165,141,157
0,111159,438,692,1542,-1485,-307,-46,165,141,157
0,111165,440,694,1543,-1490,-309,-42,165,141,157
0,111170,440,694,1543,-1490,-309,-42,165,141,157
0,111175,440,694,1543,-1490,-309,-42,165,141,157
0,111181,440,694,1544,-1488,-300,-43,165,141,157
0,111186,440,694,1544,-1488,-300,-43,165,141,157
0,111192,440,694,1544,-1488,-300,-43,165,141,157
0,111197,440,694,1544,-1488,-300,-43,165,141,157
0,111202,438,693,1542,-1481,-301,-49,165,141,157
0,111207,438,693,1542,-1481,-301,-49,165,141,157
0,111212,438,693,1542,-1481,-301,-49,165,141,157
0,111216,438,693,1542,-1481,-301,-49,165,141,157
0,111221,437,693,1544,-1479,-305,-44,165,141,157
0,111226,437,693,1544,-1479,-305,-44,165,141,157
0,111232,437,693,1544,-1479,-305,-44,165,141,157
0,111237,437,693,1544,-1479,-305,-44,165,141,157
0,111242,441,689,1537,-1481,-300,-41,163,131,149
0,111247,441,689,1537,-1481,-300,-41,163,131,149
0,111251,441,689,1537,-1481,-300,-41,163,131,149
0,111256,441,689,1537,-1481,-300,-41,163,131,149
0,111261,438,693,1542,-1488,-302,-40,163,131,149
0,111266,438,693,1542,-1488,-302,-40,163,131,149
0,111271,438,693,1542,-1488,-302,-40,163,131,149
0,111277,438,693,1542,-1488,-302,-40,163,131,149
0,111283,438,690,1544,-1486,-299,-47,163,131,149
0,111289,438,690,1544,-1486,-299,-47,163,131,149
0,111293,438,690,1544,-1486,-299,-47,163,131,149
0,111300,438,690,1544,-1486,-299,-47,163,131,149
0,111304,439,692,1540,-1492,-303,-49,163,131,149
0,111310,439,692,1540,-1492,-303,-49,163,131,149
0,111316,439,692,1540,-1492,-303,-49,163,131,149
0,111322,439,689,1541,-1483,-307,-43,163,131,149
0,111326,439,689,1541,-1483,-307,-43,163,131,149
0,111332,439,689,1541,-1483,-307,-43,163,131,149
0,111338,439,689,1541,-1483,-307,-43,163,131,149
0,111343,438,693,1544,-1483,-307,-51,163,131,149
0,111348,438,693,1544,-1483,-307,-51,163,131,149
0,111353,438,693,1544,-1483,-307,-51,163,131,149
0,111358,438,693,1544,-1483,-307,-51,163,131,149
0,111364,441,692,1541,-1485,-309,-41,163,131,149
0,111369,441,692,1541,-1485,-309,-41,163,131,149
0,111374,441,692,1541,-1485,-309,-41,163,131,149
0,111380,439,693,1541,-1484,-302,-48,164,134,156
0,111386,439,693,1541,-1484,-302,-48,164,134,156
0,111392,439,693,1541,-1484,-302,-48,164,134,156
0,111398,439,693,1541,-1484,-302,-48,164,134,156
0,111405,438,691,1543,-1484,-301,-43,164,134,156
0,111410,438,691,1543,-1484,-301,-43,164,134,156
0,111415,438,691,1543,-1484,-301,-43,164,134,156
0,111420,438,691,1543,-1484,-301,-43,164,134,156
0,111425,440,692,1545,-1485,-304,-41,164,134,156
0,111429,440,692,1545,-1485,-304,-41,164,134,156
0,111434,440,692,1545,-1485,-304,-41,164,134,156
0,111440,439,693,1539,-1482,-304,-41,164,134,156
0,111447,439,693,1539,-1482,-304,-41,164,134,156
0,111452,439,693,1539,-1482,-304,-41,164,134,156
0,111458,439,693,1539,-1482,-304,-41,164,134,156
0,111464,439,693,1539,-1482,-304,-41,164,134,156
0,111469,439,693,1539,-1482,-304,-41,164,134,156
0,111473,439,693,1539,-1482,-304,-41,164,134,156
0,111478,439,693,1539,-1482,-304,-41,164,134,156
0,111485,439,693,1540,-1481,-308,-47,164,134,156
0,111491,439,693,1540,-1481,-308,-47,164,134,156
0,111497,439,693,1540,-1481,-308,-47,164,134,156
0,111502,438,690,1543,-1487,-310,-42,163,139,151
0,111508,438,690,1543,-1487,-310,-42,163,139,151
0,111513,438,690,1543,-1487,-310,-42,163,139,151
0,111518,438,690,1543,-1487,-310,-42,163,139,151
0,111524,437,692,1540,-1479,-301,-49,163,139,151
0,111529,437,692,1540,-1479,-301,-49,163,139,151
0,111535,437,692,1540,-1479,-301,-49,163,139,151
0,111540,439,694,1542,-1473,-296,-50,163,139,151
0,111546,439,694,1542,-1473,-296,-50,163,139,151
0,111551,439,694,1542,-1473,-296,-50,163,139,151
0,111557,439,694,1542,-1473,-296,-50,163,139,151
0,111564,440,694,1544,-1489,-298,-43,163,139,151
0,111569,440,694,1544,-1489,-298,-43,163,139,151
0,111575,440,694,1544,-1489,-298,-43,163,139,151
0,111581,440,692,1539,-1490,-302,-39,163,139,151
0,111586,440,692,1539,-1490,-302,-39,163,139,151
0,111592,440,692,1539,-1490,-302,-39,163,139,151
0,111597,440,692,1539,-1490,-302,-39,163,139,151
0,111602,437,694,1542,-1477,-300,-37,163,139,151
0,111608,437,694,1542,-1477,-300,-37,163,139,151
0,111613,437,694,1542,-1477,-300,-37,163,139,151
0,111620,437,694,1542,-1477,-300,-37,163,139,151
0,111625,439,693,1545,-1480,-302,-39,163,119,153
0,111631,439,693,1545,-1480,-302,-39,163,119,153
0,111636,439,693,1545,-1480,-302,-39,163,119,153
0,111642,441,691,1545,-1492,-300,-41,163,119,153
0,111647,441,691,1545,-1492,-300,-41,163,119,153
0,111652,441,691,1545,-1492,-300,-41,163,119,153
0,111659,441,691,1545,-1492,-300,-41,163,119,153
0,111665,439,695,1543,-1490,-308,-42,163,119,153
0,111670,439,695,1543,-1490,-308,-42,163,119,153
0,111675,439,695,1543,-1490,-308,-42,163,119,153
0,111680,439,692,1539,-1485,-307,-43,163,119,153
0,111686,439,692,1539,-1485,-307,-43,163,119,153
0,111692,439,692,1539,-1485,-307,-43,163,119,153
0,111698,439,692,1539,-1485,-307,-43,163,119,153
0,111704,439,693,1546,-1482,-306,-46,163,119,153
0,111709,439,693,1546,-1482,-306,-46,163,119,153
0,111714,439,693,1546,-1482,-306,-46,163,119,153
0,111719,439,693,1546,-1482,-306,-46,163,119,153
0,111724,440,691,1543,-1476,-303,-42,163,119,153
0,111729,440,691,1543,-1476,-303,-42,163,119,153
0,111733,440,691,1543,-1476,-303,-42,163,119,153
0,111738,440,691,1543,-1476,-303,-42,163,119,153
0,111744,439,693,1537,-1482,-305,-42,171,127,159
0,111749,439,693,1537,-1482,-305,-42,171,127,159
0,111754,439,693,1537,-1482,-305,-42,171,127,159
0,111759,439,693,1537,-1482,-305,-42,171,127,159
0,111763,438,689,1545,-1491,-301,-49,171,127,159
0,111769,438,689,1545,-1491,-301,-49,171,127,159
0,111774,438,689,1545,-1491,-301,-49,171,127,159
0,111778,438,689,1545,-1491,-301,-49,171,127,159
0,111784,441,692,1546,-1482,-304,-44,171,127,159
0,111790,441,692,1546,-1482,-304,-44,171,127,159
0,111795,441,692,1546,-1482,-304,-44,171,127,159
0,111801,439,690,1539,-1482,-301,-44,171,127,159
0,111806,439,690,1539,-1482,-301,-44,171,127,159
0,111812,439,690,1539,-1482,-301,-44,171,127,159
0,111817,439,690,1539,-1482,-301,-44,171,127,159
0,111823,438,692,1542,-1483,-300,-42,171,127,159
0,111828,438,692,1542,-1483,-300,-42,171,127,159
0,111835,438,692,1542,-1483,-300,-42,171,127,159
0,111841,438,692,1542,-1483,-300,-42,171,127,159
0,111846,438,692,1542,-1483,-300,-42,171,127,159
0,111851,438,692,1542,-1483,-300,-42,171,127,159
0,111857,438,692,1542,-1483,-300,-42,171,127,159
0,111863,439,692,1538,-1484,-308,-49,171,127,159
0,111869,439,692,1538,-1484,-308,-49,171,127,159
0,111875,439,692,1538,-1484,-308,-49,171,127,159
0,111880,439,692,1538,-1484,-308,-49,171,127,159
0,111885,438,690,1541,-1486,-302,-42,169,129,147
0,111890,438,690,1541,-1486,-302,-42,169,129,147
0,111895,438,690,1541,-1486,-302,-42,169,129,147
0,111899,438,690,1541,-1486,-302,-42,169,129,147
0,111904,438,690,1541,-1486,-302,-42,169,129,147
0,111909,438,690,1541,-1486,-302,-42,169,129,147
0,111915,438,690,1541,-1486,-302,-42,169,129,147
0,111920,438,690,1541,-1486,-302,-42,169,129,147
0,111925,437,690,1543,-1480,-307,-44,169,129,147
0,111930,437,690,1543,-1480,-307,-44,169,129,147
0,111934,437,690,1543,-1480,-307,-44,169,129,147
0,111939,437,690,1543,-1480,-307,-44,169,129,147
0,111944,438,695,1539,-1481,-305,-49,169,129,147
0,111949,438,695,1539,-1481,-305,-49,169,129,147
0,111954,438,695,1539,-1481,-305,-49,169,129,147
0,111960,438,695,1539,-1481,-305,-49,169,129,147
0,111965,438,691,1537,-1487,-303,-49,169,129,147
0,111970,438,691,1537,-1487,-303,-49,169,129,147
0,111976,438,691,1537,-1487,-303,-49,169,129,147
0,111980,440,690,1539,-1486,-305,-45,169,129,147
0,111986,440,690,1539,-1486,-305,-45,169,129,147
0,111992,440,690,1539,-1486,-305,-45,169,129,147
0,111998,440,690,1539,-1486,-305,-45,169,129,147
0,112005,438,691,1544,-1489,-304,-43,169,135,157
0,112010,438,691,1544,-1489,-304,-43,169,135,157
0,112016,438,691,1544,-1489,-304,-43,169,135,157
0,112023,441,690,1545,-1490,-303,-43,169,135,157
0,112029,441,690,1545,-1490,-303,-43,169,135,157
0,112034,441,690,1545,-1490,-303,-43,169,135,157
0,112040,440,690,1550,-1482,-298,-40,169,135,157
0,112047,440,690,1550,-1482,-298,-40,169,135,157
0,112052,440,690,1550,-1482,-298,-40,169,135,157
0,112058,440,690,1550,-1482,-298,-40,169,135,157
0,112064,437,693,1543,-1483,-305,-52,169,135,157
0,112069,437,693,1543,-1483,-305,-52,169,135,157
0,112074,437,693,1543,-1483,-305,-52,169,135,157
0,112080,439,692,1545,-1484,-301,-42,169,135,157
0,112086,439,692,1545,-1484,-301,-42,169,135,157
0,112092,439,692,1545,-1484,-301,-42,169,135,157
0,112097,439,692,1545,-1484,-301,-42,169,135,157
0,112102,437,693,1542,-1488,-302,-43,169,135,157
0,112107,437,693,1542,-1488,-302,-43,169,135,157
0,112112,437,693,1542,-1488,-302,-43,169,135,157
0,112117,437,693,1542,-1488,-302,-43,169,135,157
0,112123,436,697,1544,-1484,-313,-44,168,130,158
0,112129,436,697,1544,-1484,-313,-44,168,130,158
0,112134,436,697,1544,-1484,-313,-44,168,130,158
0,112139,436,697,1544,-1484,-313,-44,168,130,158
0,112145,437,692,1541,-1484,-308,-47,168,130,158
0,112151,437,692,1541,-1484,-308,-47,168,130,158
0,112157,437,692,1541,-1484,-308,-47,168,130,158
0,112162,437,692,1546,-1489,-304,-47,168,130,158
0,112167,437,692,1546,-1489,-304,-47,168,130,158
0,112174,437,692,1546,-1489,-304,-47,168,130,158
0,112179,437,692,1546,-1489,-304,-47,168,130,158
0,112185,436,693,1544,-1488,-299,-43,168,130,158
0,112191,436,693,1544,-1488,-299,-43,168,130,158
0,112196,436,693,1544,-1488,-299,-43,168,130,158
0,112202,438,694,1541,-1494,-307,-47,168,130,158
0,112207,438,694,1541,-1494,-307,-47,168,130,158
0,112212,438,694,1541,-1494,-307,-47,168,130,158
0,112218,438,694,1541,-1494,-307,-47,168,130,158
0,112223,439,692,1541,-1485,-303,-53,168,130,158
0,112228,439,692,1541,-1485,-303,-53,168,130,158
0,112233,439,692,1541,-1485,-303,-53,168,130,158
0,112237,439,692,1541,-1485,-303,-53,168,130,158
0,112242,440,693,1538,-1485,-300,-49,157,145,155
0,112247,440,693,1538,-1485,-300,-49,157,145,155
0,112252,440,693,1538,-1485,-300,-49,157,145,155
0,112258,440,693,1538,-1485,-300,-49,157,145,155
0,112262,441,693,1549,-1486,-307,-43,157,145,155
0,112267,441,693,1549,-1486,-307,-43,157,145,155
0,112271,441,693,1549,-1486,-307,-43,157,145,155
0,112276,441,693,1549,-1486,-307,-43,157,145,155
0,112280,441,693,1549,-1486,-307,-43,157,145,155
0,112285,437,696,1541,-1490,-301,-42,157,145,155
0,112290,437,696,1541,-1490,-301,-42,157,145,155
0,112294,437,696,1541,-1490,-301,-42,157,145,155
0,112300,437,696,1541,-1490,-301,-42,157,145,155
0,112305,438,694,1544,-1485,-304,-42,157,145,155
0,112310,438,694,1544,-1485,-304,-42,157,145,155
0,112314,438,694,1544,-1485,-304,-42,157,145,155
0,112318,438,694,1544,-1485,-304,-42,157,145,155
0,112323,440,693,1542,-1489,-308,-42,157,145,155
0,112328,440,693,1542,-1489,-308,-42,157,145,155
0,112333,440,693,1542,-1489,-308,-42,157,145,155
0,112338,440,693,1542,-1489,-308,-42,157,145,155
0,112344,440,690,1541,-1491,-300,-45,157,145,155
0,112349,440,690,1541,-1491,-300,-45,157,145,155
0,112354,440,690,1541,-1491,-300,-45,157,145,155
0,112359,440,690,1541,-1491,-300,-45,157,145,155
0,112364,437,692,1542,-1485,-299,-44,162,140,156
0,112369,437,692,1542,-1485,-299,-44,162,140,156
0,112373,437,692,1542,-1485,-299,-44,162,140,156
0,112378,437,692,1542,-1485,-299,-44,162,140,156
0,112384,436,693,1547,-1492,-301,-43,162,140,156
0,112389,436,693,1547,-1492,-301,-43,162,140,156
0,112394,436,693,1547,-1492,-301,-43,162,140,156
0,112399,436,693,1547,-1492,-301,-43,162,140,156
0,112404,439,689,1538,-1490,-301,-45,162,140,156
0,112408,439,689,1538,-1490,-301,-45,162,140,156
0,112413,439,689,1538,-1490,-301,-45,162,140,156
0,112418,439,689,1538,-1490,-301,-45,162,140,156
0,112423,437,692,1543,-1486,-303,-37,162,140,156
0,112429,437,692,1543,-1486,-303,-37,162,140,156
0,112434,437,692,1543,-1486,-303,-37,162,140,156
0,112438,437,692,1543,-1486,-303,-37,162,140,156
0,112443,437,689,1543,-1483,-311,-47,162,140,156
0,112448,437,689,1543,-1483,-311,-47,162,140,156
0,112453,437,689,1543,-1483,-311,-47,162,140,156
0,112458,437,689,1543,-1483,-311,-47,162,140,156
0,112463,439,693,1540,-1484,-298,-46,162,140,156
0,112467,439,693,1540,-1484,-298,-46,162,140,156
0,112474,439,693,1540,-1484,-298,-46,162,140,156
0,112478,439,693,1540,-1484,-298,-46,162,140,156
0,112483,439,691,1544,-1482,-305,-45,162,140,156
0,112487,439,691,1544,-1482,-305,-45,162,140,156
0,112492,439,691,1544,-1482,-305,-45,162,140,156
0,112497,439,691,1544,-1482,-305,-45,162,140,156
0,112501,440,691,1543,-1484,-306,-45,168,136,152
0,112506,440,691,1543,-1484,-306,-45,168,136,152
0,112512,440,691,1543,-1484,-306,-45,168,136,152
0,112516,440,691,1543,-1484,-306,-45,168,136,152
0,112521,438,693,1542,-1488,-305,-40,168,136,152
0,112526,438,693,1542,-1488,-305,-40,168,136,152
0,112531,438,693,1542,-1488,-305,-40,168,136,152
0,112536,438,693,1542,-1488,-305,-40,168,136,152
0,112541,439,691,1543,-1484,-304,-35,168,136,152
0,112546,439,691,1543,-1484,-304,-35,168,136,152
0,112551,439,691,1543,-1484,-304,-35,168,136,152
0,112558,439,691,1543,-1484,-304,-35,168,136,152
0,112563,438,691,1540,-1485,-304,-41,168,136,152
0,112568,438,691,1540,-1485,-304,-41,168,136,152
0,112573,438,691,1540,-1485,-304,-41,168,136,152
0,112579,438,691,1540,-1485,-304,-41,168,136,152
0,112584,438,692,1538,-1484,-297,-40,168,136,152
0,112588,438,692,1538,-1484,-297,-40,168,136,152
0,112592,438,692,1538,-1484,-297,-40,168,136,152
0,112598,438,692,1538,-1484,-297,-40,168,136,152
0,112603,440,693,1542,-1488,-297,-40,168,136,152
0,112608,440,693,1542,-1488,-297,-40,168,136,152
0,112613,440,693,1542,-1488,-297,-40,168,136,152
0,112617,440,693,1542,-1488,-297,-40,168,136,152
0,112622,441,692,1547,-1481,-294,-43,171,141,155
0,112627,441,692,1547,-1481,-294,-43,171,141,155
0,112633,441,692,1547,-1481,-294,-43,171,141,155
0,112638,441,692,1547,-1481,-294,-43,171,141,155
0,112644,438,692,1548,-1485,-299,-41,171,141,155
0,112648,438,692,1548,-1485,-299,-41,171,141,155
0,112653,438,692,1548,-1485,-299,-41,171,141,155
0,112658,438,692,1548,-1485,-299,-41,171,141,155
0,112662,436,692,1545,-1484,-302,-36,171,141,155
0,112667,436,692,1545,-1484,-302,-36,171,141,155
0,112672,436,692,1545,-1484,-302,-36,171,141,155
0,112677,436,692,1545,-1484,-302,-36,171,141,155
0,112683,439,691,1540,-1480,-304,-42,171,141,155
0,112687,439,691,1540,-1480,-304,-42,171,141,155
0,112692,439,691,1540,-1480,-304,-42,171,141,155
0,112697,439,691,1540,-1480,-304,-42,171,141,155
0,112702,440,693,1541,-1484,-306,-45,171,141,155
0,112706,440,693,1541,-1484,-306,-45,171,141,155
0,112711,440,693,1541,-1484,-306,-45,171,141,155
0,112716,440,693,1541,-1484,-306,-45,171,141,155
0,112721,437,692,1541,-1483,-301,-44,171,141,155
0,112727,437,692,1541,-1483,-301,-44,171,141,155
0,112731,437,692,1541,-1483,-301,-44,171,141,155
0,112736,437,692,1541,-1483,-301,-44,171,141,155
0,112741,438,692,1540,-1487,-303,-45,160,134,156
0,112746,438,692,1540,-1487,-303,-45,160,134,156
0,112751,438,692,1540,-1487,-303,-45,160,134,156
0,112756,438,692,1540,-1487,-303,-45,160,134,156
0,112761,437,692,1544,-1489,-298,-52,160,134,156
0,112766,437,692,1544,-1489,-298,-52,160,134,156
0,112772,437,692,1544,-1489,-298,-52,160,134,156
0,112776,437,692,1544,-1489,-298,-52,160,134,156
0,112780,437,692,1544,-1489,-298,-52,160,134,156
0,112787,438,693,1543,-1493,-302,-40,160,134,156
0,112792,438,693,1543,-1493,-302,-40,160,134,156
0,112798,438,693,1543,-1493,-302,-40,160,134,156
0,112803,438,694,1542,-1492,-300,-38,160,134,156
0,112808,438,694,1542,-1492,-300,-38,160,134,156
0,112814,438,694,1542,-1492,-300,-38,160,134,156
0,112819,438,694,1542,-1492,-300,-38,160,134,156
0,112824,441,692,1542,-1483,-299,-45,160,134,156
0,112829,441,692,1542,-1483,-299,-45,160,134,156
0,112834,441,692,1542,-1483,-299,-45,160,134,156
0,112840,441,692,1542,-1483,-299,-45,160,134,156
0,112844,438,694,1545,-1486,-305,-47,160,134,156
0,112849,438,694,1545,-1486,-305,-47,160,134,156
0,112854,438,694,1545,-1486,-305,-47,160,134,156
0,112859,438,694,1545,-1486,-305,-47,160,134,156
0,112864,438,692,1546,-1482,-303,-39,161,133,149
0,112869,438,692,1546,-1482,-303,-39,161,133,149
0,112874,438,692,1546,-1482,-303,-39,161,133,149
0,112878,438,692,1546,-1482,-303,-39,161,133,149
0,112883,438,691,1545,-1480,-304,-35,161,133,149
0,112888,438,691,1545,-1480,-304,-35,161,133,149
0,112893,438,691,1545,-1480,-304,-35,161,133,149
0,112899,438,691,1545,-1480,-304,-35,161,133,149
0,112904,438,692,1540,-1486,-306,-33,161,133,149
0,112909,438,692,1540,-1486,-306,-33,161,133,149
0,112913,438,692,1540,-1486,-306,-33,161,133,149
0,112917,438,692,1540,-1486,-306,-33,161,133,149
0,112922,438,692,1541,-1487,-302,-41,161,133,149
0,112927,438,692,1541,-1487,-302,-41,161,133,149
0,112931,438,692,1541,-1487,-302,-41,161,133,149
0,112936,438,692,1541,-1487,-302,-41,161,133,149
0,112942,438,693,1545,-1490,-305,-43,161,133,149
0,112946,438,693,1545,-1490,-305,-43,161,133,149
0,112951,438,693,1545,-1490,-305,-43,161,133,149
0,112955,438,693,1545,-1490,-305,-43,161,133,149
0,112960,438,693,1545,-1490,-305,-43,161,133,149
0,112965,438,691,1545,-1486,-300,-40,161,133,149
0,112970,438,691,1545,-1486,-300,-40,161,133,149
0,112975,438,691,1545,-1486,-300,-40,161,133,149
0,112980,440,693,1543,-1481,-304,-42,161,133,149
0,112986,440,693,1543,-1481,-304,-42,168,130,158
0,112991,440,693,1543,-1481,-304,-42,168,130,158
0,112995,440,693,1543,-1481,-304,-42,168,130,158
0,113000,440,693,1543,-1481,-304,-42,168,130,158
0,113005,439,693,1545,-1481,-302,-46,168,130,158
0,113010,439,693,1545,-1481,-302,-46,168,130,158
0,113015,439,693,1545,-1481,-302,-46,168,130,158
0,113020,438,692,1544,-1484,-309,-43,168,130,158
0,113026,438,692,1544,-1484,-309,-43,168,130,158
0,113031,438,692,1544,-1484,-309,-43,168,130,158
0,113036,438,692,1544,-1484,-309,-43,168,130,158
0,113041,438,695,1540,-1479,-304,-41,168,130,158
0,113045,438,695,1540,-1479,-304,-41,168,130,158
0,113051,438,695,1540,-1479,-304,-41,168,130,158
0,113056,438,695,1540,-1479,-304,-41,168,130,158
0,113061,438,692,1542,-1484,-301,-43,168,130,158
0,113067,438,692,1542,-1484,-301,-43,168,130,158
0,113072,438,692,1542,-1484,-301,-43,168,130,158
0,113077,438,692,1542,-1484,-301,-43,168,130,158
0,113082,440,690,1547,-1485,-296,-42,168,130,158
0,113086,440,690,1547,-1485,-296,-42,168,130,158
0,113091,440,690,1547,-1485,-296,-42,168,130,158
0,113096,440,690,1547,-1485,-296,-42,168,130,158
0,113101,437,691,1545,-1477,-298,-45,168,130,158
0,113106,437,691,1545,-1477,-298,-45,168,130,158
0,113112,437,691,1545,-1477,-298,-45,168,130,158
0,113117,437,691,1545,-1477,-298,-45,168,130,158
0,113121,441,696,1546,-1482,-299,-45,162,130,152
0,113127,441,696,1546,-1482,-299,-45,162,130,152
0,113132,441,696,1546,-1482,-299,-45,162,130,152
0,113137,441,696,1546,-1482,-299,-45,162,130,152
0,113143,438,694,1543,-1485,-303,-42,162,130,152
0,113148,438,694,1543,-1485,-303,-42,162,130,152
0,113155,438,694,1543,-1485,-303,-42,162,130,152
0,113161,438,694,1543,-1485,-303,-42,162,130,152
0,113166,438,691,1545,-1486,-304,-46,162,130,152
0,113172,438,691,1545,-1486,-304,-46,162,130,152
0,113178,438,691,1545,-1486,-304,-46,162,130,152
0,113183,438,692,1544,-1489,-309,-49,162,130,152
0,113189,438,692,1544,-1489,-309,-49,162,130,152
0,113195,438,692,1544,-1489,-309,-49,162,130,152
0,113200,438,692,1544,-1489,-309,-49,162,130,152
0,113205,437,695,1546,-1495,-303,-49,162,130,152
0,113210,437,695,1546,-1495,-303,-49,162,130,152
0,113215,437,695,1546,-1495,-303,-49,162,130,152
0,113219,437,695,1546,-1495,-303,-49,162,130,152
0,113224,437,690,1538,-1489,-304,-47,162,130,152
0,113229,437,690,1538,-1489,-304,-47,162,130,152
0,113234,437,690,1538,-1489,-304,-47,162,130,152
0,113240,437,690,1538,-1489,-304,-47,162,130,152
0,113244,438,693,1547,-1483,-308,-47,169,131,155
0,113249,438,693,1547,-1483,-308,-47,169,131,155
0,113254,438,693,1547,-1483,-308,-47,169,131,155
0,113258,438,693,1547,-1483,-308,-47,169,131,155
0,113263,439,692,1548,-1480,-307,-43,169,131,155
0,113267,439,692,1548,-1480,-307,-43,169,131,155
0,113272,439,692,1548,-1480,-307,-43,169,131,155
0,113276,439,692,1548,-1480,-307,-43,169,131,155
0,113282,438,693,1542,-1480,-305,-44,169,131,155
0,113287,438,693,1542,-1480,-305,-44,169,131,155
0,113292,438,693,1542,-1480,-305,-44,169,131,155
0,113297,438,693,1542,-1480,-305,-44,169,131,155
0,113302,437,690,1540,-1484,-297,-41,169,131,155
0,113307,437,690,1540,-1484,-297,-41,169,131,155
0,113312,437,690,1540,-1484,-297,-41,169,131,155
0,113316,437,690,1540,-1484,-297,-41,169,131,155
0,113321,439,694,1541,-1487,-302,-44,169,131,155
0,113326,439,694,1541,-1487,-302,-44,169,131,155
0,113331,439,694,1541,-1487,-302,-44,169,131,155
0,113336,439,694,1541,-1487,-302,-44,169,131,155
0,113341,437,692,1540,-1486,-298,-42,169,131,155
0,113345,437,692,1540,-1486,-298,-42,169,131,155
0,113350,437,692,1540,-1486,-298,-42,169,131,155
0,113355,437,692,1540,-1486,-298,-42,169,131,155
0,113360,437,692,1540,-1486,-298,-42,169,131,155
0,113364,440,696,1544,-1491,-299,-43,169,137,155
0,113370,440,696,1544,-1491,-299,-43,169,137,155
0,113375,440,696,1544,-1491,-299,-43,169,137,155
0,113380,440,696,1544,-1491,-299,-43,169,137,155
0,113385,438,692,1547,-1488,-298,-44,169,137,155
0,113390,438,692,1547,-1488,-298,-44,169,137,155
0,113394,438,692,1547,-1488,-298,-44,169,137,155
0,113399,438,692,1547,-1488,-298,-44,169,137,155
0,113404,437,694,1544,-1483,-301,-42,169,137,155
0,113409,437,694,1544,-1483,-301,-42,169,137,155
0,113414,437,694,1544,-1483,-301,-42,169,137,155
0,113419,437,694,1544,-1483,-301,-42,169,137,155
0,113424,438,690,1543,-1481,-298,-43,169,137,155
0,113429,438,690,1543,-1481,-298,-43,169,137,155
0,113434,438,690,1543,-1481,-298,-43,169,137,155
0,113438,438,690,1543,-1481,-298,-43,169,137,155
0,113443,440,693,1543,-1479,-302,-46,169,137,155
0,113448,440,693,1543,-1479,-302,-46,169,137,155
0,113454,440,693,1543,-1479,-302,-46,169,137,155
0,113459,440,693,1543,-1479,-302,-46,169,137,155
0,113464,441,693,1545,-1484,-304,-52,169,137,155
0,113468,441,693,1545,-1484,-304,-52,169,137,155
0,113474,441,693,1545,-1484,-304,-52,169,137,155
0,113479,441,693,1545,-1484,-304,-52,169,137,155
0,113483,438,694,1543,-1485,-305,-50,157,139,157
0,113488,438,694,1543,-1485,-305,-50,157,139,157
0,113494,438,694,1543,-1485,-305,-50,157,139,157
0,113499,438,694,1543,-1485,-305,-50,157,139,157
0,113503,436,690,1549,-1491,-297,-43,157,139,157
0,113508,436,690,1549,-1491,-297,-43,157,139,157
0,113513,436,690,1549,-1491,-297,-43,157,139,157
0,113518,436,690,1549,-1491,-297,-43,157,139,157
0,113523,436,694,1543,-1486,-298,-41,157,139,157
0,113528,436,694,1543,-1486,-298,-41,157,139,157
0,113533,436,694,1543,-1486,-298,-41,157,139,157
0,113539,436,694,1543,-1486,-298,-41,157,139,157
0,113544,440,694,1545,-1483,-302,-44,157,139,157
0,113549,440,694,1545,-1483,-302,-44,157,139,157
0,113554,440,694,1545,-1483,-302,-44,157,139,157
0,113559,440,694,1545,-1483,-302,-44,157,139,157
0,113564,437,693,1545,-1486,-302,-38,157,139,157
0,113568,437,693,1545,-1486,-302,-38,157,139,157
0,113573,437,693,1545,-1486,-302,-38,157,139,157
0,113577,437,693,1545,-1486,-302,-38,157,139,157
0,113584,436,693,1540,-1488,-301,-40,157,139,157
0,113589,436,693,1540,-1488,-301,-40,157,139,157
0,113593,436,693,1540,-1488,-301,-40,157,139,157
0,113598,436,693,1540,-1488,-301,-40,157,139,157
0,113602,438,695,1540,-1485,-305,-35,163,137,155
0,113607,438,695,1540,-1485,-305,-35,163,137,155
0,113612,438,695,1540,-1485,-305,-35,163,137,155
0,113616,438,695,1540,-1485,-305,-35,163,137,155
0,113622,437,695,1545,-1485,-299,-41,163,137,155
0,113627,437,695,1545,-1485,-299,-41,163,137,155
0,113632,437,695,1545,-1485,-299,-41,163,137,155
0,113637,437,695,1545,-1485,-299,-41,163,137,155
0,113641,441,692,1543,-1480,-310,-39,163,137,155
0,113646,441,692,1543,-1480,-310,-39,163,137,155
0,113651,441,692,1543,-1480,-310,-39,163,137,155
0,113656,441,692,1543,-1480,-310,-39,163,137,155
0,113660,437,692,1544,-1496,-303,-36,163,137,155
0,113666,437,692,1544,-1496,-303,-36,163,137,155
0,113671,437,692,1544,-1496,-303,-36,163,137,155
0,113676,437,692,1544,-1496,-303,-36,163,137,155
0,113681,437,692,1544,-1496,-303,-36,163,137,155
0,113686,439,694,1546,-1489,-299,-41,163,137,155
0,113691,439,694,1546,-1489,-299,-41,163,137,155
0,113696,439,694,1546,-1489,-299,-41,163,137,155
0,113700,439,694,1546,-1489,-299,-41,163,137,155
0,113705,438,693,1544,-1485,-304,-41,163,137,155
0,113711,438,693,1544,-1485,-304,-41,163,137,155
0,113716,438,693,1544,-1485,-304,-41,163,137,155
0,113720,438,693,1544,-1485,-304,-41,163,137,155
0,113725,433,691,1542,-1470,-306,-47,163,137,155
0,113730,433,691,1542,-1470,-306,-47,163,137,155
0,113735,433,691,1542,-1470,-306,-47,163,137,155
0,113739,433,691,1542,-1470,-306,-47,163,137,155
0,113744,436,695,1543,-1481,-309,-47,166,136,152
0,113750,436,695,1543,-1481,-309,-47,166,136,152
0,113754,436,695,1543,-1481,-309,-47,166,136,152
0,113759,436,695,1543,-1481,-309,-47,166,136,152
0,113764,437,692,1541,-1481,-303,-44,166,136,152
0,113768,437,692,1541,-1481,-303,-44,166,136,152
0,113773,437,692,1541,-1481,-303,-44,166,136,152
0,113778,437,692,1541,-1481,-303,-44,166,136,152
0,113783,440,692,1545,-1482,-309,-39,166,136,152
0,113787,440,692,1545,-1482,-309,-39,166,136,152
0,113793,440,692,1545,-1482,-309,-39,166,136,152
0,113798,440,692,1545,-1482,-309,-39,166,136,152
0,113803,439,695,1548,-1482,-304,-38,166,136,152
0,113807,439,695,1548,-1482,-304,-38,166,136,152
0,113812,439,695,1548,-1482,-304,-38,166,136,152
0,113816,439,695,1548,-1482,-304,-38,166,136,152
0,113821,438,693,1544,-1491,-309,-39,166,136,152
0,113825,438,693,1544,-1491,-309,-39,166,136,152
0,113830,438,693,1544,-1491,-309,-39,166,136,152
0,113835,438,693,1544,-1491,-309,-39,166,136,152
0,113841,438,693,1544,-1491,-309,-39,166,136,152
0,113846,440,690,1547,-1492,-301,-42,166,136,152
0,113850,440,690,1547,-1492,-301,-42,166,136,152
0,113855,440,690,1547,-1492,-301,-42,166,136,152
0,113861,440,690,1547,-1492,-301,-42,166,136,152
0,113865,442,692,1541,-1496,-289,-37,170,136,158
0,113870,442,692,1541,-1496,-289,-37,170,136,158
0,113875,442,692,1541,-1496,-289,-37,170,136,158
0,113881,436,690,1536,-1498,-288,-23,170,136,158
0,113886,436,690,1536,-1498,-288,-23,170,136,158
0,113892,436,690,1536,-1498,-288,-23,170,136,158
0,113897,436,690,1536,-1498,-288,-23,170,136,158
0,113902,430,693,1543,-1486,-304,-32,170,136,158
0,113907,430,693,1543,-1486,-304,-32,170,136,158
0,113911,430,693,1543,-1486,-304,-32,170,136,158
0,113916,430,693,1543,-1486,-304,-32,170,136,158
0,113921,430,689,1547,-1485,-305,-49,170,136,158
0,113926,430,689,1547,-1485,-305,-49,170,136,158
0,113931,430,689,1547,-1485,-305,-49,170,136,158
0,113936,430,689,1547,-1485,-305,-49,170,136,158
0,113941,430,689,1547,-1485,-305,-49,170,136,158
0,113945,438,689,1546,-1482,-301,-42,170,136,158
0,113950,438,689,1546,-1482,-301,-42,170,136,158
0,113955,438,689,1546,-1482,-301,-42,170,136,158
0,113960,438,689,1546,-1482,-301,-42,170,136,158
0,113965,442,692,1546,-1492,-296,-40,170,136,158
0,113971,442,692,1546,-1492,-296,-40,170,136,158
0,113975,442,692,1546,-1492,-296,-40,170,136,158
0,113980,442,692,1546,-1492,-296,-40,170,136,158
0,113985,442,703,1541,-1482,-297,-31,168,136,150
0,113990,442,703,1541,-1482,-297,-31,168,136,150
0,113994,442,703,1541,-1482,-297,-31,168,136,150
0,113999,442,703,1541,-1482,-297,-31,168,136,150
0,114003,438,699,1543,-1491,-298,-49,168,136,150
0,114009,438,699,1543,-1491,-298,-49,168,136,150
0,114014,438,699,1543,-1491,-298,-49,168,136,150
0,114019,438,699,1543,-1491,-298,-49,168,136,150
0,114024,436,691,1538,-1483,-300,-51,168,136,150
0,114030,436,691,1538,-1483,-300,-51,168,136,150
0,114035,436,691,1538,-1483,-300,-51,168,136,150
0,114041,432,690,1540,-1482,-300,-36,168,136,150
0,114046,432,690,1540,-1482,-300,-36,168,136,150
0,114053,432,690,1540,-1482,-300,-36,168,136,150
0,114058,432,690,1540,-1482,-300,-36,168,136,150
0,114063,431,690,1540,-1485,-298,-44,168,136,150
0,114067,431,690,1540,-1485,-298,-44,168,136,150
0,114072,431,690,1540,-1485,-298,-44,168,136,150
0,114077,431,690,1540,-1485,-298,-44,168,136,150
0,114082,439,695,1545,-1485,-310,-40,168,136,150
0,114087,439,695,1545,-1485,-310,-40,168,136,150
0,114093,439,695,1545,-1485,-310,-40,168,136,150
0,114098,439,695,1545,-1485,-310,-40,168,136,150
0,114103,448,694,1542,-1487,-303,-45,162,136,154
0,114107,448,694,1542,-1487,-303,-45,162,136,154
0,114112,448,694,1542,-1487,-303,-45,162,136,154
0,114118,448,694,1542,-1487,-303,-45,162,136,154
0,114122,447,697,1546,-1488,-300,-46,162,136,154
0,114127,447,697,1546,-1488,-300,-46,162,136,154
0,114132,447,697,1546,-1488,-300,-46,162,136,154
0,114138,447,697,1546,-1488,-300,-46,162,136,154
0,114142,436,696,1543,-1486,-303,-39,162,136,154
0,114147,436,696,1543,-1486,-303,-39,162,136,154
0,114151,436,696,1543,-1486,-303,-39,162,136,154
0,114156,436,696,1543,-1486,-303,-39,162,136,154
0,114162,433,691,1543,-1484,-305,-41,162,136,154
0,114167,433,691,1543,-1484,-305,-41,162,136,154
0,114172,433,691,1543,-1484,-305,-41,162,136,154
0,114178,433,691,1543,-1484,-305,-41,162,136,154
0,114183,435,689,1541,-1471,-302,-49,162,136,154
0,114188,435,689,1541,-1471,-302,-49,162,136,154
0,114193,435,689,1541,-1471,-302,-49,162,136,154
0,114197,435,689,1541,-1471,-302,-49,162,136,154
0,114202,443,688,1545,-1478,-300,-41,162,136,154
0,114207,443,688,1545,-1478,-300,-41,162,136,154
0,114212,443,688,1545,-1478,-300,-41,162,136,154
0,114216,443,688,1545,-1478,-300,-41,162,136,154
0,114222,441,693,1544,-1487,-299,-33,162,136,154
0,114227,441,693,1544,-1487,-299,-33,162,136,154
0,114232,441,693,1544,-1487,-299,-33,162,136,154
0,114236,441,693,1544,-1487,-299,-33,162,136,154
0,114242,438,699,1544,-1487,-298,-38,159,135,153
0,114246,438,699,1544,-1487,-298,-38,159,135,153
0,114251,438,699,1544,-1487,-298,-38,159,135,153
0,114256,438,699,1544,-1487,-298,-38,159,135,153
0,114262,435,696,1542,-1499,-303,-52,159,135,153
0,114267,435,696,1542,-1499,-303,-52,159,135,153
0,114271,435,696,1542,-1499,-303,-52,159,135,153
0,114276,435,696,1542,-1499,-303,-52,159,135,153
0,114281,437,694,1541,-1489,-297,-50,159,135,153
0,114286,437,694,1541,-1489,-297,-50,159,135,153
0,114291,437,694,1541,-1489,-297,-50,159,135,153
0,114295,437,694,1541,-1489,-297,-50,159,135,153
0,114300,437,694,1541,-1489,-297,-50,159,135,153
0,114306,435,690,1542,-1487,-304,-47,159,135,153
0,114311,435,690,1542,-1487,-304,-47,159,135,153
0,114316,435,690,1542,-1487,-304,-47,159,135,153
0,114320,435,690,1542,-1487,-304,-47,159,135,153
0,114325,437,690,1540,-1485,-305,-46,159,135,153
0,114330,437,690,1540,-1485,-305,-46,159,135,153
0,114335,437,690,1540,-1485,-305,-46,159,135,153
0,114340,437,690,1540,-1485,-305,-46,159,135,153
0,114345,442,691,1545,-1485,-298,-47,159,135,153
0,114350,442,691,1545,-1485,-298,-47,159,135,153
0,114355,442,691,1545,-1485,-298,-47,159,135,153
0,114359,442,691,1545,-1485,-298,-47,159,135,153
0,114364,444,690,1546,-1485,-312,-43,170,144,152
0,114369,444,690,1546,-1485,-312,-43,170,144,152
0,114374,444,690,1546,-1485,-312,-43,170,144,152
0,114379,444,690,1546,-1485,-312,-43,170,144,152
0,114384,439,694,1547,-1484,-307,-38,170,144,152
0,114390,439,694,1547,-1484,-307,-38,170,144,152
0,114395,439,694,1547,-1484,-307,-38,170,144,152
0,114400,439,694,1547,-1484,-307,-38,170,144,152
0,114405,435,697,1539,-1487,-302,-37,170,144,152
0,114410,435,697,1539,-1487,-302,-37,170,144,152
0,114415,435,697,1539,-1487,-302,-37,170,144,152
0,114420,435,697,1539,-1487,-302,-37,170,144,152
0,114424,433,697,1545,-1486,-300,-51,170,144,152
0,114428,433,697,1545,-1486,-300,-51,170,144,152
0,114434,433,697,1545,-1486,-300,-51,170,144,152
0,114439,433,697,1545,-1486,-300,-51,170,144,152
0,114443,440,691,1542,-1489,-305,-49,170,144,152
0,114448,440,691,1542,-1489,-305,-49,170,144,152
0,114452,440,691,1542,-1489,-305,-49,170,144,152
0,114457,440,691,1542,-1489,-305,-49,170,144,152
0,114462,443,691,1539,-1490,-300,-36,170,144,152
0,114467,443,691,1539,-1490,-300,-36,170,144,152
0,114472,443,691,1539,-1490,-300,-36,170,144,152
0,114478,443,691,1539,-1490,-300,-36,170,144,152
0,114483,440,695,1546,-1487,-291,-33,167,135,161
0,114488,440,695,1546,-1487,-291,-33,167,135,161
0,114493,440,695,1546,-1487,-291,-33,167,135,161
0,114498,440,695,1546,-1487,-291,-33,167,135,161
0,114503,436,693,1546,-1483,-294,-51,167,135,161
0,114508,436,693,1546,-1483,-294,-51,167,135,161
0,114512,436,693,1546,-1483,-294,-51,167,135,161
0,114518,436,693,1546,-1483,-294,-51,167,135,161
0,114523,436,692,1549,-1478,-304,-50,167,135,161
0,114528,436,692,1549,-1478,-304,-50,167,135,161
0,114533,436,692,1549,-1478,-304,-50,167,135,161
0,114537,436,692,1549,-1478,-304,-50,167,135,161
0,114542,437,693,1541,-1483,-306,-45,167,135,161
0,114547,437,693,1541,-1483,-306,-45,167,135,161
0,114552,437,693,1541,-1483,-306,-45,167,135,161
0,114557,437,693,1541,-1483,-306,-45,167,135,161
0,114563,437,697,1544,-1481,-302,-47,167,135,161
0,114568,437,697,1544,-1481,-302,-47,167,135,161
0,114573,437,697,1544,-1481,-302,-47,167,135,161
0,114578,437,697,1544,-1481,-302,-47,167,135,161
0,114583,438,692,1541,-1488,-303,-42,167,135,161
0,114588,438,692,1541,-1488,-303,-42,167,135,161
0,114594,438,692,1541,-1488,-303,-42,167,135,161
0,114599,438,692,1541,-1488,-303,-42,167,135,161
0,114606,443,688,1544,-1483,-303,-46,161,135,149
0,114612,443,688,1544,-1483,-303,-46,161,135,149
0,114617,443,688,1544,-1483,-303,-46,161,135,149
0,114623,441,686,1544,-1482,-303,-49,161,135,149
0,114629,441,686,1544,-1482,-303,-49,161,135,149
0,114634,441,686,1544,-1482,-303,-49,161,135,149
0,114640,441,686,1544,-1482,-303,-49,161,135,149
0,114646,436,690,1541,-1490,-302,-46,161,135,149
0,114651,436,690,1541,-1490,-302,-46,161,135,149
0,114657,436,690,1541,-1490,-302,-46,161,135,149
0,114662,435,693,1543,-1490,-302,-42,161,135,149
0,114668,435,693,1543,-1490,-302,-42,161,135,149
0,114673,435,693,1543,-1490,-302,-42,161,135,149
0,114679,435,693,1543,-1490,-302,-42,161,135,149
0,114684,440,695,1540,-1485,-307,-44,161,135,149
0,114690,440,695,1540,-1485,-307,-44,161,135,149
0,114695,440,695,1540,-1485,-307,-44,161,135,149
0,114701,440,695,1540,-1485,-307,-44,161,135,149
0,114706,443,693,1539,-1489,-307,-38,161,135,149
0,114710,443,693,1539,-1489,-307,-38,161,135,149
0,114715,443,693,1539,-1489,-307,-38,161,135,149
0,114720,443,693,1539,-1489,-307,-38,161,135,149
0,114725,439,689,1546,-1483,-304,-46,169,135,161
0,114729,439,689,1546,-1483,-304,-46,169,135,161
0,114735,439,689,1546,-1483,-304,-46,169,135,161
0,114740,439,689,1546,-1483,-304,-46,169,135,161
0,114745,437,690,1546,-1488,-300,-46,169,135,161
0,114750,437,690,1546,-1488,-300,-46,169,135,161
0,114754,437,690,1546,-1488,-300,-46,169,135,161
0,114759,437,690,1546,-1488,-300,-46,169,135,161
0,114765,440,693,1543,-1490,-301,-44,169,135,161
0,114769,440,693,1543,-1490,-301,-44,169,135,161
0,114775,440,693,1543,-1490,-301,-44,169,135,161
0,114779,440,693,1543,-1490,-301,-44,169,135,161
0,114784,439,692,1539,-1494,-302,-46,169,135,161
0,114789,439,692,1539,-1494,-302,-46,169,135,161
0,114794,439,692,1539,-1494,-302,-46,169,135,161
0,114799,439,692,1539,-1494,-302,-46,169,135,161
0,114804,439,695,1539,-1491,-306,-48,169,135,161
0,114809,439,695,1539,-1491,-306,-48,169,135,161
0,114813,439,695,1539,-1491,-306,-48,169,135,161
0,114819,439,695,1539,-1491,-306,-48,169,135,161
0,114824,442,696,1545,-1483,-309,-40,169,135,161
0,114829,442,696,1545,-1483,-309,-40,169,135,161
0,114833,442,696,1545,-1483,-309,-40,169,135,161
0,114838,442,696,1545,-1483,-309,-40,169,135,161
0,114843,443,696,1547,-1478,-298,-41,169,135,161
0,114847,443,696,1547,-1478,-298,-41,169,135,161
0,114852,443,696,1547,-1478,-298,-41,169,135,161
0,114857,443,696,1547,-1478,-298,-41,169,135,161
0,114862,440,687,1547,-1487,-300,-46,164,134,154
0,114867,440,687,1547,-1487,-300,-46,164,134,154
0,114872,440,687,1547,-1487,-300,-46,164,134,154
0,114877,440,687,1547,-1487,-300,-46,164,134,154
0,114881,437,688,1537,-1489,-299,-40,164,134,154
0,114886,437,688,1537,-1489,-299,-40,164,134,154
0,114890,437,688,1537,-1489,-299,-40,164,134,154
0,114895,437,688,1537,-1489,-299,-40,164,134,154
0,114899,437,688,1537,-1489,-299,-40,164,134,154
0,114905,437,688,1537,-1489,-299,-40,164,134,154
0,114909,437,688,1537,-1489,-299,-40,164,134,154
0,114915,437,688,1537,-1489,-299,-40,164,134,154
0,114919,437,688,1537,-1489,-299,-40,164,134,154
0,114924,441,694,1535,-1490,-307,-48,164,134,154
0,114929,441,694,1535,-1490,-307,-48,164,134,154
0,114934,441,694,1535,-1490,-307,-48,164,134,154
0,114939,441,694,1535,-1490,-307,-48,164,134,154
0,114945,442,693,1547,-1481,-298,-43,164,134,154
0,114949,442,693,1547,-1481,-298,-43,164,134,154
0,114954,442,693,1547,-1481,-298,-43,164,134,154
0,114958,442,693,1547,-1481,-298,-43,164,134,154
0,114963,442,690,1538,-1479,-301,-48,164,134,154
0,114968,442,690,1538,-1479,-301,-48,164,134,154
0,114973,442,690,1538,-1479,-301,-48,164,134,154
0,114978,442,690,1538,-1479,-301,-48,164,134,154
0,114982,440,689,1547,-1477,-294,-39,171,141,145
0,114988,440,689,1547,-1477,-294,-39,171,141,145
0,114993,440,689,1547,-1477,-294,-39,171,141,145
0,114997,440,689,1547,-1477,-294,-39,171,141,145
0,115002,436,690,1538,-1481,-302,-48,171,141,145
0,115007,436,690,1538,-1481,-302,-48,171,141,145
0,115012,436,690,1538,-1481,-302,-48,171,141,145
0,115017,436,690,1538,-1481,-302,-48,171,141,145
0,115022,435,690,1542,-1483,-306,-42,171,141,145
0,115026,435,690,1542,-1483,-306,-42,171,141,145
0,115032,435,690,1542,-1483,-306,-42,171,141,145
0,115037,435,690,1542,-1483,-306,-42,171,141,145
0,115042,437,691,1537,-1485,-298,-42,171,141,145
0,115046,437,691,1537,-1485,-298,-42,171,141,145
0,115052,437,691,1537,-1485,-298,-42,171,141,145
0,115057,437,691,1537,-1485,-298,-42,171,141,145
0,115063,440,698,1543,-1484,-302,-44,171,141,145
0,115068,440,698,1543,-1484,-302,-44,171,141,145
0,115074,440,698,1543,-1484,-302,-44,171,141,145
0,115079,440,698,1543,-1484,-302,-44,171,141,145
0,115084,444,695,1538,-1491,-304,-40,171,141,145
0,115088,444,695,1538,-1491,-304,-40,171,141,145
0,115093,444,695,1538,-1491,-304,-40,171,141,145
0,115098,444,695,1538,-1491,-304,-40,171,141,145
0,115103,439,695,1545,-1489,-308,-47,164,140,154
0,115108,439,695,1545,-1489,-308,-47,164,140,154
0,115113,439,695,1545,-1489,-308,-47,164,140,154
0,115119,439,695,1545,-1489,-308,-47,164,140,154
0,115124,438,687,1545,-1481,-302,-41,164,140,154
0,115130,438,687,1545,-1481,-302,-41,164,140,154
0,115135,438,687,1545,-1481,-302,-41,164,140,154
0,115140,438,687,1545,-1481,-302,-41,164,140,154
0,115145,436,688,1543,-1490,-303,-38,164,140,154
0,115149,436,688,1543,-1490,-303,-38,164,140,154
0,115154,436,688,1543,-1490,-303,-38,164,140,154
0,115160,436,688,1543,-1490,-303,-38,164,140,154
0,115165,435,690,1542,-1487,-304,-45,164,140,154
0,115170,435,690,1542,-1487,-304,-45,164,140,154
0,115175,435,690,1542,-1487,-304,-45,164,140,154
0,115180,435,690,1542,-1487,-304,-45,164,140,154
0,115185,439,691,1541,-1490,-310,-38,164,140,154
0,115189,439,691,1541,-1490,-310,-38,164,140,154
0,115194,439,691,1541,-1490,-310,-38,164,140,154
0,115200,439,691,1541,-1490,-310,-38,164,140,154
0,115204,439,692,1539,-1480,-305,-42,164,140,154
0,115209,439,692,1539,-1480,-305,-42,164,140,154
0,115214,439,692,1539,-1480,-305,-42,164,140,154
0,115218,439,692,1539,-1480,-305,-42,164,140,154
0,115224,439,695,1544,-1486,-303,-31,160,126,156
0,115229,439,695,1544,-1486,-303,-31,160,126,156
0,115234,439,695,1544,-1486,-303,-31,160,126,156
0,115238,439,695,1544,-1486,-303,-31,160,126,156
0,115244,439,692,1539,-1489,-301,-34,160,126,156
0,115249,439,692,1539,-1489,-301,-34,160,126,156
0,115255,439,692,1539,-1489,-301,-34,160,126,156
0,115260,439,692,1539,-1489,-301,-34,160,126,156
0,115265,435,690,1544,-1487,-305,-49,160,126,156
0,115271,435,690,1544,-1487,-305,-49,160,126,156
0,115276,435,690,1544,-1487,-305,-49,160,126,156
0,115281,439,689,1542,-1493,-305,-57,160,126,156
0,115288,439,689,1542,-1493,-305,-57,160,126,156
0,115293,439,689,1542,-1493,-305,-57,160,126,156
0,115298,439,689,1542,-1493,-305,-57,160,126,156
0,115303,439,693,1536,-1493,-306,-47,160,126,156
0,115308,439,693,1536,-1493,-306,-47,160,126,156
0,115312,439,693,1536,-1493,-306,-47,160,126,156
0,115317,439,693,1536,-1493,-306,-47,160,126,156
0,115322,438,696,1543,-1488,-298,-46,160,126,156
0,115328,438,696,1543,-1488,-298,-46,160,126,156
0,115333,438,696,1543,-1488,-298,-46,160,126,156
0,115337,438,696,1543,-1488,-298,-46,160,126,156
0,115342,441,696,1540,-1487,-298,-37,161,131,153
0,115347,441,696,1540,-1487,-298,-37,161,131,153
0,115351,441,696,1540,-1487,-298,-37,161,131,153
0,115356,441,696,1540,-1487,-298,-37,161,131,153
0,115362,438,694,1547,-1482,-300,-42,161,131,153
0,115366,438,694,1547,-1482,-300,-42,161,131,153
0,115372,438,694,1547,-1482,-300,-42,161,131,153
0,115377,438,694,1547,-1482,-300,-42,161,131,153
0,115382,435,690,1546,-1482,-299,-44,161,131,153
0,115387,435,690,1546,-1482,-299,-44,161,131,153
0,115391,435,690,1546,-1482,-299,-44,161,131,153
0,115396,435,690,1546,-1482,-299,-44,161,131,153
0,115401,435,690,1546,-1482,-299,-44,161,131,153
0,115406,438,691,1539,-1488,-304,-44,161,131,153
0,115411,438,691,1539,-1488,-304,-44,161,131,153
0,115417,438,691,1539,-1488,-304,-44,161,131,153
0,115422,439,691,1542,-1480,-306,-49,161,131,153
0,115427,439,691,1542,-1480,-306,-49,161,131,153
0,115432,439,691,1542,-1480,-306,-49,161,131,153
0,115436,439,691,1542,-1480,-306,-49,161,131,153
0,115441,439,691,1542,-1480,-306,-49,161,131,153
0,115446,440,691,1542,-1484,-305,-39,161,131,153
0,115451,440,691,1542,-1484,-305,-39,161,131,153
0,115457,440,691,1542,-1484,-305,-39,161,131,153
0,115461,440,691,1542,-1484,-305,-39,161,131,153
0,115466,437,692,1540,-1485,-302,-46,161,131,153
0,115471,437,692,1540,-1485,-302,-46,161,131,153
0,115475,437,692,1540,-1485,-302,-46,161,131,153
0,115480,437,692,1540,-1485,-302,-46,161,131,153
0,115484,438,693,1543,-1480,-303,-52,165,135,147
0,115489,438,693,1543,-1480,-303,-52,165,135,147
0,115494,438,693,1543,-1480,-303,-52,165,135,147
0,115500,438,693,1543,-1480,-303,-52,165,135,147
0,115505,440,690,1543,-1474,-293,-53,165,135,147
0,115510,440,690,1543,-1474,-293,-53,165,135,147
0,115515,440,690,1543,-1474,-293,-53,165,135,147
0,115519,440,690,1543,-1474,-293,-53,165,135,147
0,115524,437,688,1539,-1476,-297,-55,165,135,147
0,115529,437,688,1539,-1476,-297,-55,165,135,147
0,115534,437,688,1539,-1476,-297,-55,165,135,147
0,115539,437,688,1539,-1476,-297,-55,165,135,147
0,115545,437,687,1541,-1485,-302,-49,165,135,147
0,115549,437,687,1541,-1485,-302,-49,165,135,147
0,115555,437,687,1541,-1485,-302,-49,165,135,147
0,115560,437,687,1541,-1485,-302,-49,165,135,147
0,115564,433,692,1543,-1482,-305,-34,165,135,147
0,115568,433,692,1543,-1482,-305,-34,165,135,147
0,115573,433,692,1543,-1482,-305,-34,165,135,147
0,115578,433,692,1543,-1482,-305,-34,165,135,147
0,115582,432,696,1545,-1482,-301,-38,165,135,147
0,115588,432,696,1545,-1482,-301,-38,165,135,147
0,115593,432,696,1545,-1482,-301,-38,165,135,147
0,115598,432,696,1545,-1482,-301,-38,165,135,147
0,115602,440,695,1548,-1480,-303,-44,163,135,147
0,115607,440,695,1548,-1480,-303,-44,163,135,147
0,115612,440,695,1548,-1480,-303,-44,163,135,147
0,115616,440,695,1548,-1480,-303,-44,163,135,147
0,115621,440,695,1548,-1480,-303,-44,163,135,147
0,115625,442,693,1541,-1483,-308,-45,163,135,147
0,115630,442,693,1541,-1483,-308,-45,163,135,147
0,115635,442,693,1541,-1483,-308,-45,163,135,147
0,115640,442,693,1541,-1483,-308,-45,163,135,147
0,115645,440,688,1541,-1485,-306,-40,163,135,147
0,115650,440,688,1541,-1485,-306,-40,163,135,147
0,115654,440,688,1541,-1485,-306,-40,163,135,147
0,115659,440,688,1541,-1485,-306,-40,163,135,147
0,115664,436,688,1545,-1490,-302,-44,163,135,147
0,115670,436,688,1545,-1490,-302,-44,163,135,147
0,115674,436,688,1545,-1490,-302,-44,163,135,147
0,115679,436,688,1545,-1490,-302,-44,163,135,147
0,115684,436,688,1545,-1490,-302,-44,163,135,147
0,115689,436,688,1545,-1490,-302,-44,163,135,147
0,115694,436,688,1545,-1490,-302,-44,163,135,147
0,115698,436,688,1545,-1490,-302,-44,163,135,147
0,115703,433,699,1543,-1481,-304,-52,163,135,147
0,115707,433,699,1543,-1481,-304,-52,163,135,147
0,115713,433,699,1543,-1481,-304,-52,163,135,147
0,115718,433,699,1543,-1481,-304,-52,163,135,147
0,115723,436,696,1548,-1481,-304,-44,168,132,152
0,115728,436,696,1548,-1481,-304,-44,168,132,152
0,115733,436,696,1548,-1481,-304,-44,168,132,152
0,115737,436,696,1548,-1481,-304,-44,168,132,152
0,115742,441,692,1542,-1482,-302,-41,168,132,152
0,115747,441,692,1542,-1482,-302,-41,168,132,152
0,115752,441,692,1542,-1482,-302,-41,168,132,152
0,115758,441,692,1542,-1482,-302,-41,168,132,152
0,115762,437,691,1541,-1485,-299,-46,168,132,152
0,115767,437,691,1541,-1485,-299,-46,168,132,152
0,115773,437,691,1541,-1485,-299,-46,168,132,152
0,115777,437,691,1541,-1485,-299,-46,168,132,152
0,115782,438,692,1545,-1485,-294,-45,168,132,152
0,115787,438,692,1545,-1485,-294,-45,168,132,152
0,115792,438,692,1545,-1485,-294,-45,168,132,152
0,115796,438,692,1545,-1485,-294,-45,168,132,152
0,115801,438,692,1545,-1485,-294,-45,168,132,152
0,115807,437,689,1542,-1495,-300,-49,168,132,152
0,115812,437,689,1542,-1495,-300,-49,168,132,152
0,115817,437,689,1542,-1495,-300,-49,168,132,152
0,115821,437,689,1542,-1495,-300,-49,168,132,152
0,115826,435,690,1543,-1496,-301,-50,168,132,152
0,115831,435,690,1543,-1496,-301,-50,168,132,152
0,115836,435,690,1543,-1496,-301,-50,168,132,152
0,115843,436,697,1541,-1486,-305,-48,169,135,147
0,115848,436,697,1541,-1486,-305,-48,169,135,147
0,115854,436,697,1541,-1486,-305,-48,169,135,147
0,115859,436,697,1541,-1486,-305,-48,169,135,147
0,115864,441,696,1540,-1477,-300,-45,169,135,147
0,115869,441,696,1540,-1477,-300,-45,169,135,147
0,115874,441,696,1540,-1477,-300,-45,169,135,147
0,115879,441,696,1540,-1477,-300,-45,169,135,147
0,115885,441,692,1543,-1483,-301,-49,169,135,147
0,115890,441,692,1543,-1483,-301,-49,169,135,147
0,115895,441,692,1543,-1483,-301,-49,169,135,147
0,115899,441,692,1543,-1483,-301,-49,169,135,147
0,115904,437,689,1548,-1487,-302,-40,169,135,147
0,115909,437,689,1548,-1487,-302,-40,169,135,147
0,115914,437,689,1548,-1487,-302,-40,169,135,147
0,115918,437,689,1548,-1487,-302,-40,169,135,147
0,115923,433,690,1540,-1482,-300,-39,169,135,147
0,115928,433,690,1540,-1482,-300,-39,169,135,147
0,115933,433,690,1540,-1482,-300,-39,169,135,147
0,115938,433,690,1540,-1482,-300,-39,169,135,147
0,115943,434,689,1543,-1489,-303,-44,169,135,147
0,115948,434,689,1543,-1489,-303,-44,169,135,147
0,115953,434,689,1543,-1489,-303,-44,169,135,147
0,115958,434,689,1543,-1489,-303,-44,169,135,147
0,115962,438,691,1542,-1483,-293,-43,161,141,155
0,115968,438,691,1542,-1483,-293,-43,161,141,155
0,115973,438,691,1542,-1483,-293,-43,161,141,155
0,115978,438,691,1542,-1483,-293,-43,161,141,155
0,115983,439,694,1548,-1489,-291,-46,161,141,155
0,115988,439,694,1548,-1489,-291,-46,161,141,155
0,115993,439,694,1548,-1489,-291,-46,161,141,155
0,115998,439,694,1548,-1489,-291,-46,161,141,155
0,116003,438,689,1540,-1491,-298,-43,161,141,155
0,116008,438,689,1540,-1491,-298,-43,161,141,155
0,116014,438,689,1540,-1491,-298,-43,161,141,155
0,116019,438,689,1540,-1491,-298,-43,161,141,155
0,116024,434,688,1540,-1487,-297,-44,161,141,155
0,116029,434,688,1540,-1487,-297,-44,161,141,155
0,116034,434,688,1540,-1487,-297,-44,161,141,155
0,116038,434,688,1540,-1487,-297,-44,161,141,155
0,116043,435,693,1540,-1487,-301,-46,161,141,155
0,116049,435,693,1540,-1487,-301,-46,161,141,155
0,116054,435,693,1540,-1487,-301,-46,161,141,155
0,116059,435,693,1540,-1487,-301,-46,161,141,155
0,116064,437,689,1543,-1485,-300,-47,161,141,155
0,116069,437,689,1543,-1485,-300,-47,161,141,155
0,116074,437,689,1543,-1485,-300,-47,161,141,155
0,116079,437,689,1543,-1485,-300,-47,161,141,155
0,116085,438,691,1545,-1491,-294,-37,161,141,155
0,116090,438,691,1545,-1491,-294,-37,161,141,155
0,116097,438,691,1545,-1491,-294,-37,161,141,155
0,116104,438,691,1545,-1491,-294,-37,165,133,153
0,116109,438,691,1545,-1491,-294,-37,165,133,153
0,116115,438,691,1545,-1491,-294,-37,165,133,153
0,116120,438,691,1545,-1491,-294,-37,165,133,153
0,116125,439,695,1546,-1485,-297,-43,165,133,153
0,116131,439,695,1546,-1485,-297,-43,165,133,153
0,116136,439,695,1546,-1485,-297,-43,165,133,153
0,116142,439,695,1546,-1485,-297,-43,165,133,153
0,116147,435,693,1545,-1486,-302,-44,165,133,153
0,116153,435,693,1545,-1486,-302,-44,165,133,153
0,116159,435,693,1545,-1486,-302,-44,165,133,153
0,116164,436,693,1542,-1485,-296,-44,165,133,153
0,116169,436,693,1542,-1485,-296,-44,165,133,153
0,116174,436,693,1542,-1485,-296,-44,165,133,153
0,116179,436,693,1542,-1485,-296,-44,165,133,153
0,116185,435,690,1545,-1485,-303,-45,165,133,153
0,116190,435,690,1545,-1485,-303,-45,165,133,153
0,116195,435,690,1545,-1485,-303,-45,165,133,153
0,116200,435,690,1545,-1485,-303,-45,165,133,153
0,116205,437,692,1546,-1481,-307,-39,165,133,153
0,116209,437,692,1546,-1481,-307,-39,165,133,153
0,116214,437,692,1546,-1481,-307,-39,165,133,153
0,116219,437,692,1546,-1481,-307,-39,165,133,153
0,116226,438,692,1540,-1482,-305,-39,165,135,155
0,116232,438,692,1540,-1482,-305,-39,165,135,155
0,116238,438,692,1540,-1482,-305,-39,165,135,155
0,116243,440,695,1540,-1479,-302,-44,165,135,155
0,116247,440,695,1540,-1479,-302,-44,165,135,155
0,116252,440,695,1540,-1479,-302,-44,165,135,155
0,116257,440,695,1540,-1479,-302,-44,165,135,155
0,116262,434,693,1545,-1491,-302,-48,165,135,155
0,116267,434,693,1545,-1491,-302,-48,165,135,155
0,116272,434,693,1545,-1491,-302,-48,165,135,155
0,116277,434,693,1545,-1491,-302,-48,165,135,155
0,116281,434,693,1545,-1491,-302,-48,165,135,155
0,116286,438,692,1546,-1484,-301,-38,165,135,155
0,116290,438,692,1546,-1484,-301,-38,165,135,155
0,116295,438,692,1546,-1484,-301,-38,165,135,155
0,116301,438,692,1546,-1484,-301,-38,165,135,155
0,116305,435,689,1545,-1478,-304,-42,165,135,155
0,116311,435,689,1545,-1478,-304,-42,165,135,155
0,116315,435,689,1545,-1478,-304,-42,165,135,155
0,116320,435,689,1545,-1478,-304,-42,165,135,155
0,116325,439,690,1539,-1484,-301,-38,165,135,155
0,116330,439,690,1539,-1484,-301,-38,165,135,155
0,116334,439,690,1539,-1484,-301,-38,165,135,155
0,116340,439,690,1539,-1484,-301,-38,165,135,155
0,116345,438,695,1544,-1480,-298,-45,166,130,154
0,116349,438,695,1544,-1480,-298,-45,166,130,154
0,116355,438,695,1544,-1480,-298,-45,166,130,154
0,116360,438,695,1544,-1480,-298,-45,166,130,154
0,116365,437,692,1548,-1481,-301,-46,166,130,154
0,116370,437,692,1548,-1481,-301,-46,166,130,154
0,116374,437,692,1548,-1481,-301,-46,166,130,154
0,116379,437,692,1548,-1481,-301,-46,166,130,154
0,116384,437,696,1548,-1479,-298,-43,166,130,154
0,116389,437,696,1548,-1479,-298,-43,166,130,154
0,116395,437,696,1548,-1479,-298,-43,166,130,154
0,116399,437,696,1548,-1479,-298,-43,166,130,154
0,116404,437,696,1548,-1479,-298,-43,166,130,154
0,116408,437,696,1548,-1479,-298,-43,166,130,154
0,116413,437,696,1548,-1479,-298,-43,166,130,154
0,116418,437,696,1548,-1479,-298,-43,166,130,154
0,116422,434,692,1545,-1487,-305,-45,166,130,154
0,116426,434,692,1545,-1487,-305,-45,166,130,154
0,116431,434,692,1545,-1487,-305,-45,166,130,154
0,116436,434,692,1545,-1487,-305,-45,166,130,154
0,116442,434,692,1545,-1487,-305,-45,166,130,154
0,116447,436,693,1544,-1487,-304,-42,166,130,154
0,116451,436,693,1544,-1487,-304,-42,166,130,154
0,116456,436,693,1544,-1487,-304,-42,166,130,154
0,116460,436,693,1544,-1487,-304,-42,166,130,154
0,116465,440,689,1546,-1485,-303,-47,167,133,151
0,116470,440,689,1546,-1485,-303,-47,167,133,151
0,116474,440,689,1546,-1485,-303,-47,167,133,151
0,116480,440,689,1546,-1485,-303,-47,167,133,151
0,116484,440,690,1543,-1485,-300,-47,167,133,151
0,116488,440,690,1543,-1485,-300,-47,167,133,151
0,116493,440,690,1543,-1485,-300,-47,167,133,151
0,116498,440,690,1543,-1485,-300,-47,167,133,151
0,116503,437,694,1542,-1484,-299,-53,167,133,151
0,116508,437,694,1542,-1484,-299,-53,167,133,151
0,116513,437,694,1542,-1484,-299,-53,167,133,151
0,116518,437,694,1542,-1484,-299,-53,167,133,151
0,116523,436,695,1544,-1487,-302,-45,167,133,151
0,116528,436,695,1544,-1487,-302,-45,167,133,151
0,116532,436,695,1544,-1487,-302,-45,167,133,151
0,116539,436,695,1544,-1487,-302,-45,167,133,151
0,116545,439,694,1544,-1486,-305,-45,167,133,151
0,116551,439,694,1544,-1486,-305,-45,167,133,151
0,116556,439,694,1544,-1486,-305,-45,167,133,151
